"Time (s)","Acceleration x (m/s^2)","Acceleration y (m/s^2)","Acceleration z (m/s^2)"
1.306104200E-2,-3.110669553E-1,4.667200565E0,9.734002113E0
3.187005200E-2,-3.804588020E-1,3.907479286E0,1.003071213E1
5.068015600E-2,-8.685946465E-1,3.577269793E0,9.553344727E0
6.948916700E-2,-1.106680512E0,3.643072367E0,9.186046600E0
8.829812500E-2,-1.039681435E0,3.781856298E0,9.343972206E0
1.071071360E-1,-7.920243144E-1,3.878765583E0,9.750752449E0
1.259160940E-1,-7.657032609E-1,3.699303865E0,9.672985077E0
1.447251040E-1,-8.901300430E-1,3.718446493E0,9.366703987E0
1.635341150E-1,-9.116654396E-1,3.800998688E0,9.298508644E0
1.823430730E-1,-8.985049129E-1,3.724428415E0,9.481559753E0
2.011520840E-1,-9.152546525E-1,3.625126362E0,9.414560318E0
2.199610420E-1,-9.212366939E-1,3.650250912E0,9.352347374E0
2.387700520E-1,-8.769695163E-1,3.657429457E0,9.263813019E0
2.575790630E-1,-8.506484628E-1,3.625126362E0,9.072386742E0
2.763880210E-1,-5.898307562E-1,3.568894863E0,9.170493126E0
2.951970310E-1,-6.269195080E-1,3.385843992E0,9.296115875E0
3.140060420E-1,-4.737788737E-1,3.300898790E0,9.446864128E0
3.328150520E-1,-1.926222295E-1,3.213560820E0,9.534201622E0
3.516240110E-1,-2.548356056E-1,3.236292601E0,9.450452805E0
3.704330210E-1,-1.926222295E-1,3.099901676E0,9.509077072E0
3.892420310E-1,-4.067798331E-2,2.958725214E0,9.687342644E0
4.080510420E-1,-1.483550072E-1,2.874976397E0,9.437292099E0
4.268600000E-1,-3.589233849E-3,2.721835852E0,8.794819832E0
4.456690110E-1,-3.493520916E-1,2.737389088E0,8.355736732E0
4.644780210E-1,-2.380858511E-1,2.512463808E0,9.397810936E0
4.832870310E-1,5.742774606E-1,2.201396942E0,1.007976532E1
5.020960420E-1,9.320043921E-1,2.195414782E0,1.036929703E1
5.209050520E-1,6.735795736E-1,2.398804665E0,9.964909554E0
5.397140630E-1,5.718846321E-1,2.743371248E0,9.376275063E0
5.585230210E-1,4.510470629E-1,2.968296528E0,9.444471359E0
5.773320310E-1,3.098705411E-1,2.675175667E0,9.044869423E0
5.961410420E-1,1.004985452E0,2.423929453E0,1.004985523E1
6.149500520E-1,1.462014675E0,1.690529227E0,9.259027481E0
6.337590630E-1,1.627119422E0,1.391426325E0,9.751948357E0
6.525680730E-1,2.321038008E0,1.435693622E0,9.710074425E0
6.713770840E-1,2.415554523E0,1.183250785E0,9.138189316E0
6.901860940E-1,2.388036966E0,7.776673436E-1,8.727820396E0
7.089951040E-1,2.538784742E0,3.302095234E-1,9.110671997E0
7.278041150E-1,2.397608280E0,-4.187439755E-2,9.458827972E0
7.466131250E-1,2.041077614E0,3.948157281E-2,9.548559189E0
7.654221360E-1,1.564906001E0,6.867401004E-1,9.326025963E0
7.842311460E-1,8.937192559E-1,1.129412293E0,9.172885895E0
8.030401560E-1,9.870393276E-1,1.026520967E0,8.892925262E0
8.218491670E-1,1.383051515E0,1.240678549E0,9.337990761E0
8.406581770E-1,2.208575249E0,1.383051515E0,9.942177773E0
8.594671880E-1,1.968096614E0,7.716853023E-1,9.723235130E0
8.782761980E-1,9.870393276E-1,1.112662554E0,1.031186962E1
8.970852090E-1,1.722832322E-1,1.601994753E0,1.056072235E1
9.158942190E-1,-2.691925466E-1,9.116654396E-1,9.497113228E0
9.347032290E-1,3.948157281E-2,6.963114142E-1,9.702896118E0
9.535122400E-1,-4.546362907E-2,1.028913736E0,1.020897770E1
9.723212500E-1,3.577269912E-1,9.499505758E-1,1.092921734E1
9.911302610E-1,4.965106845E-1,5.958128572E-1,1.065045357E1
1.009939271E0,2.392822644E-3,8.901300430E-1,9.979267120E0
1.028748281E0,6.699903309E-2,1.324427366E0,9.430113792E0
1.047557292E0,3.852444589E-1,1.806581140E0,9.278169632E0
1.066366354E0,5.958128572E-1,2.185843468E0,9.427721024E0
1.085175365E0,8.267202377E-1,1.989632010E0,9.580862045E0
1.103984375E0,9.894321561E-1,1.910668850E0,1.021256733E1
1.122793386E0,1.192822099E0,2.054238319E0,1.070668507E1
1.141602396E0,1.308874011E0,1.787438512E0,1.046979523E1
1.160411406E0,1.599601984E0,1.585245013E0,1.011087227E1
1.179220417E0,1.525424480E0,1.698904037E0,9.986445427E0
1.198029479E0,1.385444283E0,1.779063582E0,9.747162819E0
1.216838490E0,1.119840980E0,1.720439434E0,9.293723106E0
1.235647500E0,8.566305041E-1,1.652244091E0,9.046066284E0
1.254456511E0,1.341177106E0,1.725225091E0,9.335597992E0
1.273265521E0,1.719243050E0,1.749153376E0,9.436096191E0
1.292074531E0,1.805384636E0,1.398604870E0,9.273384094E0
1.310883594E0,1.757528186E0,1.481157184E0,9.347561836E0
1.329692604E0,1.892722726E0,1.698904037E0,9.250652313E0
1.348501615E0,1.849651933E0,1.373480201E0,8.702695847E0
1.367310625E0,1.908276081E0,1.137787223E0,8.292326927E0
1.386119636E0,1.864008784E0,7.166503668E-1,7.965706348E0
1.404928698E0,2.117648125E0,6.771687865E-1,8.163114548E0
1.423737709E0,1.837687731E0,8.039883971E-1,8.269595146E0
1.442546719E0,1.322034478E0,4.283152521E-1,7.814958572E0
1.461355729E0,1.189232826E0,6.221338734E-2,7.546962738E0
1.480164792E0,1.385444283E0,-5.132604837E-1,7.727620602E0
1.498973802E0,1.395015597E0,-1.177268744E0,8.234899521E0
1.517782813E0,1.795813441E0,-1.758724689E0,8.798408508E0
1.536591823E0,2.782852650E0,-1.881955028E0,8.779266357E0
1.555400834E0,3.996013880E0,-9.786644578E-1,8.605786324E0
1.574209896E0,4.630111694E0,-4.905286431E-1,8.572287560E0
1.593018906E0,4.881358147E0,-1.056431174E0,8.882157326E0
1.611827917E0,4.738985062E0,-1.253839016E0,1.002831936E1
1.630636979E0,5.087141037E0,-6.173482537E-1,1.053918743E1
1.649445990E0,5.586044312E0,-2.416750938E-1,1.104287624E1
1.668255000E0,6.697510719E0,-9.571290575E-3,1.131206894E1
1.687064063E0,6.973881721E0,-1.184447184E-1,1.038006496E1
1.705873073E0,7.310073376E0,6.939185858E-1,1.025803089E1
1.724682084E0,7.420143127E0,5.670989752E-1,1.040279675E1
1.743491094E0,8.037490845E0,3.900300860E-1,1.139581776E1
1.762300156E0,8.376075745E0,3.110669367E-2,1.086221886E1
1.781109167E0,8.157132149E0,-4.091726840E-1,9.689735413E0
1.799918177E0,8.700303078E0,-9.116654396E-1,8.251648903E0
1.818727240E0,9.355937004E0,-8.769695163E-1,6.821937561E0
1.837536250E0,9.162117958E0,-9.774680734E-1,5.519045353E0
1.856345261E0,8.104490280E0,-1.020538807E0,5.032105923E0
1.875154323E0,7.483552933E0,-5.551348329E-1,5.272584915E0
1.893963334E0,8.328219414E0,-3.230310604E-2,4.796412945E0
1.912772344E0,9.737591743E0,1.986042857E-1,1.529013634E0
1.931581406E0,9.209974289E0,4.163511395E-1,-5.286941528E0
1.950390417E0,9.821340561E0,3.326023519E-1,-3.178864956E0
1.969199427E0,7.325626373E0,1.806581169E-1,1.765903115E0
1.988008438E0,8.273183823E0,-1.950150430E-1,3.848855257E0
2.006817500E0,1.110628605E1,-1.252642632E0,4.552345276E0
2.025626511E0,1.055354404E1,-6.568298340E-1,5.012963295E0
2.044435573E0,8.676374435E0,-1.625923038E0,3.990031719E0
2.063244584E0,7.314858913E0,-2.029113531E0,4.265206337E0
2.082053594E0,6.539584160E0,-2.489732027E0,3.424129248E0
2.100862604E0,6.264409542E0,-3.043670416E0,2.025524378E0
2.119671667E0,5.954539299E0,-4.115654945E0,2.926422119E0
2.138480677E0,5.828916073E0,-3.464807272E0,3.712464333E0
2.157289740E0,3.150151014E0,-3.468396425E0,6.120840549E0
2.176098750E0,4.465006828E0,-5.736792088E0,5.424529076E0
2.194907761E0,5.178068161E0,-7.016952515E0,4.186243057E0
2.213716771E0,6.307480335E0,-7.267002583E0,2.285145521E0
2.232525834E0,6.457031727E0,-6.561119556E0,1.037288666E0
2.251334844E0,6.442675114E0,-6.570691109E0,-2.221735716E0
2.270143906E0,6.894918442E0,-7.258627415E0,-1.611566067E0
2.288952917E0,6.618547440E0,-7.804191113E0,-2.148754835E0
2.307761927E0,5.820540905E0,-7.174878597E0,-2.380858421E0
2.326570990E0,5.526223660E0,-7.378268719E0,-2.700300455E0
2.345380000E0,4.630111694E0,-9.382257462E0,-2.730210543E0
2.364189011E0,3.742374659E0,-1.007856941E1,-3.129812002E0
2.382998073E0,4.640879631E0,-1.009771156E1,-3.302095175E0
2.401807084E0,3.808177233E0,-9.639486313E0,-4.346562386E0
2.420616094E0,2.982653379E0,-9.512666702E0,-5.562116146E0
2.439425156E0,2.170290232E0,-9.621540070E0,-5.613562107E0
2.458234167E0,2.123630047E0,-9.962516785E0,-4.137190342E0
2.477043177E0,2.047059774E0,-1.063370419E1,-2.483749866E0
2.495852240E0,1.513460279E0,-1.129890823E1,-1.983649969E0
2.514661250E0,1.009771109E0,-1.105723381E1,-1.932204247E0
2.533470261E0,6.999006271E-1,-1.015753174E1,-2.085345030E0
2.552279323E0,8.961120844E-1,-9.152546883E0,-2.271985054E0
2.571088334E0,8.973084688E-1,-8.727820396E0,-2.149951220E0
2.589897344E0,3.613162339E-1,-8.988637924E0,-2.233700037E0
2.608706406E0,-7.298108935E-2,-9.004191399E0,-2.349751949E0
2.627515417E0,-1.483550072E-1,-8.681160927E0,-1.826920033E0
2.646324427E0,-9.451649338E-2,-8.488538742E0,-1.575673699E0
2.665133490E0,-8.853443712E-2,-8.652446747E0,-1.506281853E0
2.683942500E0,-4.007977843E-1,-9.181260109E0,-1.545763373E0
2.702751511E0,-1.060020447E0,-9.806983948E0,-1.758724689E0
2.721560573E0,-1.374676585E0,-1.000678444E1,-2.336591244E0
2.740369584E0,-1.274178028E0,-1.072223854E1,-2.177468538E0
2.759178594E0,-9.200403094E-1,-1.150349522E1,-1.564906001E0
2.777987656E0,-1.185643673E0,-1.213878918E1,-1.372283816E0
2.796796667E0,-1.557727575E0,-1.167458153E1,-1.123430252E0
2.815605677E0,-1.701296926E0,-1.114816093E1,-1.185643673E0
2.834414740E0,-2.072184324E0,-1.110269737E1,-1.673779488E0
2.853223750E0,-2.129612207E0,-1.058943653E1,-1.423729420E0
2.872032761E0,-1.439282775E0,-9.382257462E0,-1.251446247E0
2.890841823E0,-1.466800332E0,-8.845068932E0,-1.604387641E0
2.909650834E0,-1.798206210E0,-9.065208435E0,-2.092523336E0
2.928459844E0,-2.002792597E0,-9.341579437E0,-2.233700037E0
2.947268906E0,-1.974078655E0,-9.253045082E0,-1.850848317E0
2.966077917E0,-1.916650891E0,-9.223134995E0,-1.910668850E0
2.984886927E0,-1.753939033E0,-9.402596474E0,-2.109273195E0
3.003695990E0,-1.454836130E0,-9.300901413E0,-2.221735716E0
3.022505000E0,-1.138983607E0,-9.062815666E0,-2.228914261E0
3.041314011E0,-9.714859724E-1,-9.136993408E0,-2.273181438E0
3.060123073E0,-1.000199914E0,-9.477970123E0,-2.395215511E0
3.078932084E0,-1.116251707E0,-9.810572624E0,-2.338984251E0
3.097741094E0,-1.173679471E0,-1.016471100E1,-2.115255117E0
3.116550104E0,-9.487541914E-1,-1.014437199E1,-1.867598057E0
3.135359167E0,-1.289731383E0,-1.020897770E1,-1.898704767E0
3.154168177E0,-1.624726534E0,-1.001156998E1,-1.948953986E0
3.172977188E0,-2.085345030E0,-9.885947227E0,-2.276770830E0
3.191786250E0,-2.360519648E0,-9.775876999E0,-2.840280533E0
3.210595261E0,-2.032702923E0,-9.388239861E0,-3.244667530E0
3.229404271E0,-1.244267821E0,-8.907281876E0,-3.081955671E0
3.248213334E0,-6.999006271E-1,-8.708678246E0,-2.776870728E0
3.267022344E0,-3.625126183E-1,-8.810373306E0,-2.587837696E0
3.285831354E0,-4.259224236E-1,-8.934800148E0,-2.383251429E0
3.304640365E0,-5.934200287E-1,-8.918049812E0,-2.067398787E0
3.323449427E0,-9.176474810E-1,-8.800801277E0,-1.992024899E0
3.342258438E0,-1.201196909E0,-8.742177963E0,-2.342573404E0
3.361067448E0,-1.450050473E0,-8.746963501E0,-2.711068153E0
3.379876459E0,-1.710868239E0,-8.745766640E0,-3.178864956E0
3.398685521E0,-1.887937069E0,-8.817551613E0,-3.521038532E0
3.417494531E0,-1.933400750E0,-8.776873589E0,-3.419343472E0
3.436303542E0,-1.776670814E0,-8.603393555E0,-3.320041418E0
3.455112604E0,-1.670190215E0,-8.561519623E0,-3.255435228E0
3.473921615E0,-1.507478237E0,-8.470592499E0,-3.080759048E0
3.492730625E0,-1.395015597E0,-8.409575462E0,-3.080759048E0
3.511539636E0,-1.255035520E0,-8.410771370E0,-2.916850805E0
3.530348698E0,-9.774680734E-1,-8.441878319E0,-3.055634499E0
3.549157709E0,-5.563312769E-1,-8.390432358E0,-3.493520975E0
3.567966719E0,-2.500499785E-1,-8.193024635E0,-3.652643681E0
3.586775729E0,-4.785645381E-2,-8.193024635E0,-4.088137627E0
3.605584792E0,-3.278166950E-1,-8.362915039E0,-4.264009953E0
3.624393802E0,-9.308080077E-1,-8.409575462E0,-3.821337700E0
3.643202813E0,-1.475175142E0,-8.173882484E0,-3.444468260E0
3.662011823E0,-1.637887120E0,-7.788637638E0,-3.418147087E0
3.680820886E0,-1.445264935E0,-7.617550850E0,-3.406183004E0
3.699629896E0,-1.355534077E0,-7.816154957E0,-3.574877024E0
3.718438906E0,-1.409372568E0,-8.163114548E0,-4.080958843E0
3.737247917E0,-1.174875975E0,-8.338987350E0,-4.112065792E0
3.756056979E0,-1.055234790E0,-8.438288689E0,-3.743571043E0
3.774865990E0,-1.131805062E0,-8.475378036E0,-3.421736479E0
3.793675000E0,-1.165304661E0,-8.280363083E0,-3.443271875E0
3.812484011E0,-1.252642632E0,-7.987242222E0,-3.714857101E0
3.831293021E0,-1.404586911E0,-7.872386456E0,-3.999603033E0
3.850102084E0,-1.732403636E0,-8.539983749E0,-4.106083870E0
3.868911094E0,-2.255235434E0,-1.023769188E1,-4.231706619E0
3.887720104E0,-2.147558212E0,-1.177508068E1,-4.869394302E0
3.906529115E0,-4.642075896E-1,-1.196052361E1,-3.949353695E0
3.925338125E0,1.385444283E0,-1.169133186E1,-2.723032236E0
3.944147188E0,2.118844509E0,-1.187677479E1,-1.417747378E0
3.962956198E0,1.505085468E0,-1.196052361E1,-4.522434771E-1
3.981765209E0,1.094716311E0,-1.207298660E1,-9.332008660E-2
4.000574219E0,7.417750359E-1,-1.093759251E1,-1.934597135E0
4.019383281E0,2.283949137E0,-9.099904060E0,4.749752879E-1
4.038192292E0,3.981656790E0,-9.091529846E0,2.188236237E0
4.057001302E0,4.448257446E0,-1.019462109E1,2.849851847E0
4.075810313E0,4.371686935E0,-1.098185921E1,3.029313564E0
4.094619323E0,3.492324591E0,-1.196052361E1,2.561516523E0
4.113428334E0,3.162115097E0,-1.234816170E1,1.142572761E0
4.132237396E0,3.475574970E0,-1.123190975E1,-6.595815659E0
4.151046406E0,3.451646566E0,-1.003908730E1,-5.213960648E0
4.169855417E0,2.097309113E0,-9.393025398E0,-1.009771109E0
4.188664427E0,1.064806104E0,-8.799605370E0,-3.230310604E-2
4.207473438E0,9.750752449E-1,-8.149953842E0,3.457628787E-1
4.226282500E0,2.047059774E0,-7.596015453E0,1.806581169E-1
4.245091511E0,4.086941242E0,-7.317251682E0,-2.751746178E-1
4.263900521E0,2.636890650E0,-7.591229916E0,-2.517249346E0
4.282709531E0,1.972882271E0,-8.677571297E0,-2.752942562E0
4.301518542E0,7.022934556E-1,-9.536594391E0,-2.090130568E0
4.320327552E0,2.967100143E-1,-9.716055870E0,-1.137787223E0
4.339136615E0,7.860422134E-1,-9.626325607E0,-6.484549642E-1
4.357945625E0,1.396211982E0,-9.711270332E0,-9.738788009E-1
4.376754636E0,2.306680918E0,-1.008814049E1,-1.569691658E0
4.395563646E0,2.962314367E0,-1.025324535E1,-1.981257200E0
4.414372656E0,3.469592810E0,-1.039083195E1,-1.703689694E0
4.433181667E0,3.966103554E0,-1.060259724E1,-8.123632669E-1
4.451990729E0,4.455435753E0,-1.120319557E1,-1.210768223E0
4.470799740E0,4.420739651E0,-1.090409279E1,-2.560320139E0
4.489608750E0,3.723232031E0,-9.638289452E0,-3.704089403E0
4.508417761E0,3.074777126E0,-9.401400566E0,-3.263810158E0
4.527226771E0,2.301895380E0,-1.004746246E1,-1.440479279E0
4.546035781E0,2.263610125E0,-1.101177025E1,2.013560295E0
4.564844792E0,2.273181438E0,-1.243549919E1,3.528217077E0
4.583653802E0,7.776673436E-1,-1.363908863E1,2.823530674E0
4.602462865E0,-3.445664644E-1,-1.466202068E1,1.381855130E0
4.621271875E0,3.948157430E-1,-1.504606915E1,-4.785645287E-3
4.640080886E0,9.643075466E-1,-1.375992680E1,-5.754738450E-1
4.658889896E0,7.609176040E-1,-1.183968639E1,-1.525424480E0
4.677698906E0,5.072783828E-1,-9.914660454E0,-1.910668850E0
4.696507917E0,4.594219327E-1,-8.724231720E0,-1.103091240E0
4.715316927E0,3.672982752E-1,-8.441878319E0,-8.063812256E-1
4.734125938E0,-3.278166950E-1,-8.690732002E0,-7.429714203E-1
4.752934948E0,-8.805587292E-1,-8.471788406E0,-5.611169338E-1
4.771744011E0,-9.343972206E-1,-7.712067604E0,-2.883351147E-1
4.790553021E0,-9.272187948E-1,-7.239484787E0,2.656033039E-1
4.809362031E0,-7.824530005E-1,-6.973881721E0,6.173482537E-1
4.828171042E0,-3.326023519E-1,-6.666403770E0,7.345965505E-1
4.846980052E0,-2.033899166E-2,-6.326622963E0,5.922235847E-1
4.865789063E0,-2.344966233E-1,-5.979663849E0,-5.096712112E-1
4.884598073E0,-2.093719840E-1,-5.897111416E0,-1.731207132E0
4.903407084E0,5.132604837E-1,-6.588637352E0,-1.709671736E0
4.922216094E0,1.269392371E0,-7.878368378E0,-5.060820103E0
4.941025104E0,1.325623751E0,-9.349954605E0,-1.150229836E1
4.959834115E0,1.027717352E0,-1.009651470E1,-1.300379467E1
4.978643125E0,1.318445325E0,-9.846465111E0,-1.029272652E1
4.997452136E0,1.671386600E0,-9.444471359E0,-6.150750637E0
5.016261146E0,2.105684042E0,-9.133403778E0,-3.559323788E0
5.035070156E0,2.685943365E0,-8.778069496E0,-3.558127165E0
5.053879167E0,1.714457393E0,-8.415556908E0,-5.398207664E0
5.072688177E0,2.093719840E-1,-8.417949677E0,-5.030909538E0
5.091497240E0,-7.238288522E-1,-9.444471359E0,-3.878765583E0
5.110306250E0,-8.590233326E-1,-1.068156052E1,-1.971685886E0
5.129115261E0,-1.426122308E0,-1.211246777E1,-1.032503009E0
5.147924271E0,-1.446461320E0,-1.330648708E1,-1.680957913E0
5.166733281E0,-3.529413342E-1,-1.322513103E1,-7.506284714E0
5.185542292E0,6.652047038E-1,-8.851051331E0,-3.038884699E-1
5.204351302E0,5.419743061E-1,-6.100501537E0,1.663011789E0
5.223160313E0,2.158325911E0,-6.701099873E0,1.213161111E0
5.241969323E0,2.810370207E0,-9.973284721E0,9.882357717E-1
5.260778334E0,2.616551638E0,-1.169372463E1,9.439685345E-1
5.279587344E0,2.555534601E0,-1.189711380E1,9.714859724E-1
5.298396354E0,2.554338217E0,-1.097468090E1,8.458628058E-1
5.317205365E0,2.539981127E0,-9.692128181E0,-6.855437160E-1
5.336014323E0,2.606980324E0,-9.175278664E0,-2.874976397E0
5.354823386E0,3.044866800E0,-9.663414001E0,-2.599801779E0
5.373632344E0,2.312663078E0,-9.775876999E0,-1.233500123E0
5.392441354E0,1.082752228E0,-9.511469841E0,5.144568533E-2
5.411250365E0,1.100698471E0,-9.247062683E0,-1.232303679E-1
5.430059375E0,2.047059774E0,-8.703892708E0,-6.077769399E-1
5.448868386E0,2.949153900E0,-8.310273170E0,-8.279166222E-1
5.467677396E0,2.734996319E0,-8.498109818E0,-1.820937991E0
5.486486406E0,2.201396942E0,-8.928817749E0,-3.153740168E0
5.505295417E0,2.255235434E0,-8.895318031E0,-4.200600147E0
5.524104427E0,2.277967215E0,-8.965906143E0,-4.417150497E0
5.542913438E0,1.980060697E0,-9.141778946E0,-3.821337700E0
5.561722448E0,2.079362869E0,-8.863015175E0,-3.373879910E0
5.580531459E0,2.036292076E0,-9.145368576E0,-3.066402197E0
5.599340469E0,2.575873613E0,-9.232706070E0,-2.511267424E0
5.618149479E0,3.042474031E0,-9.493523598E0,-1.381855130E0
5.636958438E0,3.461217880E0,-8.647661209E0,-3.924229145E-1
5.655767448E0,1.764706731E0,-9.647860527E0,1.363908947E-1
5.674576459E0,9.990034699E-1,-1.081316566E1,3.026920557E-1
5.693385469E0,7.429714203E-1,-1.094596672E1,1.411765367E-1
5.712194479E0,9.643075466E-1,-1.043749237E1,-4.402793646E-1
5.731003490E0,9.834501147E-1,-1.012522888E1,-2.793620348E0
5.749812500E0,1.316052526E-1,-1.079162979E1,-4.882554531E0
5.768621511E0,-1.950150430E-1,-1.078445148E1,-5.569294930E0
5.787430469E0,-8.362914920E-1,-1.038963604E1,-4.195814610E0
5.806239479E0,-1.305284739E0,-1.036690426E1,-3.576073408E0
5.825048490E0,-1.951346874E0,-1.061336517E1,-2.520838737E0
5.843857500E0,-1.375872970E0,-1.017787075E1,-4.821537733E-1
5.862666511E0,-8.494520187E-1,-1.052602673E1,6.843472719E-1
5.881475469E0,5.335994363E-1,-1.034776115E1,1.160519004E0
5.900284479E0,9.942178130E-1,-1.067916775E1,-2.201396823E-1
5.919093490E0,1.806581140E0,-1.056909752E1,-3.653840065E0
5.937902500E0,1.458425403E0,-9.802198410E0,-4.566701889E0
5.956711511E0,8.506484628E-1,-8.946763992E0,-3.592823267E0
5.975520469E0,4.067798331E-2,-8.554341316E0,-3.212364435E0
5.994329479E0,-1.030110121E0,-8.541180611E0,-3.135794163E0
6.013138490E0,-1.831705689E0,-8.342576027E0,-2.837887764E0
6.031947500E0,-2.276770830E0,-7.673782349E0,-2.299502611E0
6.050756459E0,-2.231307030E0,-6.977470875E0,-1.579262972E0
6.069565469E0,-2.014756680E0,-6.338587284E0,-1.019342422E0
6.088374479E0,-1.679761529E0,-6.565905571E0,-4.689932466E-1
6.107183490E0,-5.491527915E-1,-6.010770321E0,-2.488535494E-1
6.125992448E0,1.627119333E-1,-5.801398277E0,-9.068797827E-1
6.144801459E0,4.450650215E-1,-6.474977970E0,-2.495713949E0
6.163610469E0,8.805587292E-1,-6.638886452E0,-5.393422127E0
6.182419427E0,6.496513486E-1,-6.393621922E0,-7.963313580E0
6.201228438E0,3.254238665E-1,-6.293123722E0,-7.795815945E0
6.220037448E0,-2.009970993E-1,-6.299105644E0,-6.508477688E0
6.238846406E0,-3.601198196E-1,-5.139782906E0,-5.450850010E0
6.257655417E0,-2.344966233E-1,-4.052245140E0,-4.655236244E0
6.276464427E0,3.038884699E-1,-4.311866283E0,-3.500699520E0
6.295273386E0,7.633104324E-1,-6.248856544E0,-3.512663603E0
6.314082396E0,1.115055323E0,-8.711071014E0,-5.516652584E0
6.332891406E0,1.007378340E0,-1.008694363E1,-7.140182972E0
6.351700365E0,6.005984545E-1,-9.998409271E0,-6.093322754E0
6.370509375E0,-3.469592705E-2,-9.020941734E0,-4.412364960E0
6.389318386E0,-5.204389095E-1,-7.629515171E0,-3.778266907E0
6.408127344E0,-8.494520187E-1,-6.759724140E0,-4.925625324E0
6.426936354E0,-9.750752449E-1,-7.424928665E0,-6.468996048E0
6.445745313E0,7.776673883E-2,-1.022213840E1,-5.824130535E0
6.464554323E0,2.411965132E0,-1.258624744E1,-6.040680885E0
6.483363281E0,3.025724173E0,-1.362832165E1,-6.400800347E-1
6.502172292E0,1.392622828E0,-1.444546986E1,5.024927258E-1
6.520981250E0,7.824530005E-1,-1.558923912E1,1.483550072E-1
6.539790261E0,6.903293133E-1,-1.667079544E1,1.414158225E0
6.558599271E0,1.919043779E0,-1.701177216E1,2.736192703E0
6.577408229E0,4.403990269E0,-1.475414467E1,2.919243574E0
6.596217240E0,6.239284992E0,-1.338664627E1,3.425325632E0
6.615026198E0,5.261816978E0,-1.262931824E1,3.409772158E0
6.633835209E0,4.256831646E0,-1.193061352E1,2.529213428E0
6.652644167E0,4.667200565E0,-1.172722340E1,7.166503668E-1
6.671453177E0,4.354937077E0,-1.099262714E1,-4.585844517E0
6.690262136E0,3.595216036E0,-1.049491978E1,-4.320241451E0
6.709071146E0,1.914258122E0,-9.767501831E0,-1.960918188E0
6.727880104E0,1.471585929E-1,-8.266005516E0,-8.542376757E-1
6.746689063E0,-9.032905698E-1,-7.160521984E0,-3.852444589E-1
6.765498073E0,-6.209374666E-1,-6.193821430E0,-7.944171429E-1
6.784307031E0,2.201396823E-1,-5.812166214E0,-1.225125194E0
6.803116042E0,3.708875179E-1,-5.824130535E0,-1.884347796E0
6.821925000E0,1.253839016E0,-6.434299946E0,-3.062813044E0
6.840734011E0,2.953939438E0,-7.295716286E0,-2.907279491E0
6.859542969E0,3.957728624E0,-8.691927910E0,-1.962114573E0
6.878351927E0,3.711267948E0,-1.042313576E1,-1.384247899E0
6.897160938E0,3.566502094E0,-1.137906837E1,-1.121037364E0
6.915969896E0,4.443471432E0,-1.181575775E1,-1.909472466E0
6.934778854E0,4.444668293E0,-1.184088326E1,-3.809373617E0
6.953587865E0,4.173082829E0,-1.186840057E1,-4.539184570E0
6.972396823E0,4.158725739E0,-1.263649654E1,-3.761517286E0
6.991205781E0,3.739981890E0,-1.220698452E1,-2.453839540E0
7.010014792E0,2.355733871E0,-9.973284721E0,-2.388036966E0
7.028823750E0,2.445464849E0,-8.682356834E0,-1.278963685E0
7.047632709E0,3.060420275E0,-9.881160736E0,4.534398913E-1
7.066441719E0,2.673979282E0,-1.272862053E1,7.585247755E-1
7.085250677E0,1.253839016E0,-1.594816303E1,4.450650215E-1
7.104059636E0,5.156532526E-1,-1.911626053E1,1.415354609E0
7.122868594E0,5.623133183E-1,-2.096352005E1,1.232303619E0
7.141677604E0,-1.328016520E-1,-1.885305023E1,-2.548356056E-1
7.160486563E0,-8.614161611E-1,-1.395972729E1,-1.057627559E0
7.179295521E0,-1.008574724E0,-9.759127617E0,-9.332008362E-1
7.198104479E0,-1.292124271E0,-6.742974281E0,-8.338986635E-1
7.216913490E0,-1.366301775E0,-4.650450706E0,-1.424925923E0
7.235722448E0,-1.124626622E-1,-3.671786308E0,-2.571087837E0
7.254531406E0,-2.045863420E-1,-3.534198999E0,-6.400800347E-1
7.273340365E0,-4.486542344E-1,-3.769891977E0,6.747759581E-1
7.292149323E0,-6.029912829E-1,-4.006781578E0,1.491924882E0
7.310958334E0,-5.670989752E-1,-4.563112736E0,1.648654819E0
7.329767292E0,-6.604190469E-1,-5.568098068E0,1.791027784E0
7.348576250E0,-8.398807645E-1,-6.422336102E0,1.788634896E0
7.367385209E0,-5.156532526E-1,-6.843472958E0,1.300499082E0
7.386194167E0,-8.494520187E-2,-7.113861561E0,6.436693072E-1
7.405003125E0,1.172483116E-1,-7.465606689E0,-4.845465660E0
7.423812084E0,2.678765059E0,-9.705288887E0,-2.705684280E1
7.442621042E0,5.197210789E0,-1.110987568E1,-1.899901199E1
7.461430000E0,4.630111694E0,-1.047697353E1,-4.804787636E0
7.480239011E0,4.161118507E0,-1.083948612E1,-2.644068897E-1
7.499047969E0,4.645665169E0,-1.177986622E1,-4.764110088E0
7.517856927E0,5.375475883E0,-1.069711399E1,-7.186842918E0
7.536665886E0,4.560719967E0,-9.437292099E0,-4.208974838E0
7.555474844E0,2.312663078E0,-1.089930725E1,3.254238665E-1
7.574283802E0,4.390829504E-1,-1.180618668E1,6.604190469E-1
7.593092761E0,2.201396823E-1,-1.282672596E1,-1.160518974E-1
7.611901719E0,-2.488535494E-1,-1.348355579E1,-2.459821701E0
7.630710677E0,-7.633104324E-1,-1.112303638E1,-6.759724021E-1
7.649519636E0,-7.334001660E-1,-9.218349457E0,1.113858938E0
7.668328594E0,6.041877270E-1,-8.934800148E0,2.587837696E0
7.687137552E0,1.825723648E0,-9.253045082E0,2.874976397E0
7.705946511E0,2.595016241E0,-9.293723106E0,2.121237278E0
7.724755469E0,2.553141832E0,-9.017352104E0,1.331605792E0
7.743564427E0,2.090130568E0,-8.500502586E0,2.189432681E-1
7.762373334E0,2.018345833E0,-7.696514130E0,-2.084148407E0
7.781182292E0,2.539981127E0,-7.706085205E0,-2.742174864E0
7.799991250E0,2.599801779E0,-7.915457249E0,-3.493520975E0
7.818800209E0,2.579462767E0,-8.141578674E0,-3.517449379E0
7.837609167E0,1.896311998E0,-7.982456207E0,-3.233899832E0
7.856418125E0,1.582852125E0,-8.049455643E0,-1.517049551E0
7.875227084E0,2.242074728E0,-8.088936806E0,6.580262184E-1
7.894036042E0,2.993421078E0,-8.395217896E0,1.432104349E0
7.912844948E0,3.269792080E0,-8.538787842E0,7.262216806E-1
7.931653906E0,3.125026464E0,-8.852247238E0,-8.159525394E-1
7.950462865E0,3.004188776E0,-9.723235130E0,-2.321038008E0
7.969271823E0,2.882154942E0,-1.100818062E1,-3.493520975E0
7.988080781E0,2.621337175E0,-1.202154064E1,-3.635894060E0
8.006889740E0,3.017349243E0,-1.200239849E1,-2.673979282E0
8.025698646E0,3.998406649E0,-1.132881927E1,-2.251646042E0
8.044507604E0,4.170690060E0,-1.077129078E1,-2.711068153E0
8.063316563E0,4.364508629E0,-1.166261768E1,-2.711068153E0
8.082125469E0,3.566502094E0,-1.227637672E1,-3.574877024E0
8.100934427E0,2.134397745E0,-1.037408257E1,-4.865804672E0
8.119743386E0,1.640279889E0,-8.597412109E0,-4.588237286E0
8.138552344E0,3.096312523E0,-9.711270332E0,2.182254314E0
8.157361250E0,3.235096216E0,-1.271904850E1,2.361716032E0
8.176170209E0,1.777867198E0,-1.603550148E1,1.384247899E0
8.194979167E0,6.053841114E-1,-1.872742653E1,2.044667006E0
8.213788125E0,6.963114142E-1,-2.078525352E1,-4.067798555E-1
8.232597031E0,8.027920127E-1,-1.791984940E1,-4.298706055E0
8.251405990E0,-3.589234129E-2,-1.235055447E1,-1.812563181E0
8.270214948E0,-1.257428288E0,-7.999206066E0,-1.732403636E0
8.289023854E0,-2.013560295E0,-5.645864964E0,-1.526620865E1
8.307832813E0,-1.540977836E0,-5.936593056E0,-6.281159520E-1
8.326641719E0,-1.217946768E0,-4.406383038E0,4.364508629E0
8.345450677E0,3.828516230E-2,-3.818944931E0,4.723432064E0
8.364259636E0,-6.221338734E-2,-3.425325632E0,3.753142357E0
8.383068542E0,-1.076770201E-1,-3.809373617E0,3.799802303E0
8.401877500E0,-4.977070987E-1,-4.553541660E0,3.937389612E0
8.420686406E0,-5.730810165E-1,-5.359922886E0,2.894119024E0
8.439495365E0,-4.438686073E-1,-5.755934715E0,1.259821177E0
8.458304271E0,-8.853443712E-2,-6.199803352E0,2.679961324E-1
8.477113229E0,1.914258152E-1,-7.350750923E0,-3.589234054E-1
8.495922136E0,3.446861029E0,-1.220219898E1,-4.330649948E1
8.514731094E0,3.525824070E0,-1.361396408E1,-1.921795464E1
8.533540000E0,4.292723656E0,-1.119123173E1,8.494520187E-2
8.552348959E0,6.849454880E0,-9.845269203E0,3.649054468E-1
8.571157865E0,7.988438606E0,-8.776873589E0,-7.233502865E0
8.589966823E0,5.638686657E0,-7.424928665E0,-8.362915039E0
8.608775729E0,1.135394335E0,-8.289934158E0,2.276770830E0
8.627584688E0,-3.948157281E-2,-1.074855900E1,2.829512835E0
8.646393594E0,7.860422134E-1,-1.356012630E1,1.428515077E0
8.665202552E0,7.561319470E-1,-1.692922020E1,-3.153740168E0
8.684011459E0,1.555334684E-2,-1.638485336E1,-1.887937069E0
8.702820365E0,-9.092725813E-2,-1.205384445E1,5.060819983E-1
8.721629323E0,9.391828775E-1,-9.148957253E0,1.830509305E0
8.740438229E0,1.877169371E0,-7.931010723E0,3.023331404E0
8.759247188E0,2.611765862E0,-7.982456207E0,3.646661758E0
8.778056094E0,2.853441000E0,-8.644071579E0,2.583052158E0
8.796865000E0,2.713460922E0,-9.323633194E0,1.539781332E0
8.815673959E0,2.538784742E0,-9.311669350E0,3.493520916E-1
8.834482865E0,1.768295884E0,-8.015955925E0,-4.046263218E0
8.853291771E0,1.101894855E0,-7.284948349E0,-6.699903488E0
8.872100729E0,7.489534616E-1,-7.601997375E0,-5.520241737E0
8.890909636E0,8.338986635E-1,-8.486145973E0,-2.522035122E0
8.909718542E0,7.609176040E-1,-8.335397720E0,-4.139583111E-1
8.928527500E0,1.473978758E0,-7.624729156E0,7.118647099E-1
8.947336406E0,2.465803623E0,-7.238288403E0,8.673982024E-1
8.966145313E0,3.332005501E0,-7.503891945E0,2.033899166E-2
8.984954219E0,4.185046673E0,-8.756534576E0,-1.671386600E0
9.003763177E0,4.047459602E0,-9.994820595E0,-2.870190859E0
9.022572084E0,2.868994236E0,-1.096869946E1,-2.784049034E0
9.041380990E0,2.656033039E0,-1.128455162E1,-2.457428932E0
9.060189896E0,3.483949661E0,-1.061456108E1,-2.947957516E0
9.078998802E0,4.579862595E0,-1.022572803E1,-3.840480328E0
9.097807761E0,5.089533806E0,-1.081196880E1,-2.050648928E0
9.116616667E0,5.844469070E0,-1.223928738E1,-8.063812256E-1
9.135425573E0,5.531009674E0,-1.321914864E1,-2.210968018E0
9.154234479E0,2.690729141E0,-1.127019501E1,-3.121437073E0
9.173043386E0,1.578066587E0,-1.025922680E1,-2.921636343E0
9.191852292E0,2.672782898E0,-1.155254745E1,5.910272002E-1
9.210661250E0,1.983649969E0,-1.348355579E1,1.054038405E0
9.229470156E0,7.334001660E-1,-1.568016720E1,1.129412293E0
9.248279063E0,4.534398913E-1,-1.737428474E1,1.083948612E0
9.267087969E0,7.956135273E-1,-1.784926033E1,-4.582255483E-1
9.285896875E0,3.278166950E-1,-1.545404530E1,-7.920243144E-1
9.304705781E0,-3.361915946E-1,-1.205025482E1,-5.407779217E-1
9.323514688E0,-6.616154313E-1,-9.355937004E0,-4.223332107E-1
9.342323594E0,-1.256231904E0,-7.426125050E0,-5.347958803E-1
9.361132500E0,-1.965703845E0,-5.956932068E0,-1.562513232E0
9.379941406E0,-3.314059377E-1,-5.654240131E0,-1.475175142E0
9.398750313E0,-5.108676553E-1,-5.188836098E0,5.096712112E-1
9.417559219E0,-6.233302951E-1,-4.575077057E0,1.493121386E0
9.436368125E0,-3.098705411E-1,-4.481756687E0,1.777867198E0
9.455177031E0,-3.314059377E-1,-4.816751957E0,1.584048629E0
9.473985938E0,-2.273181528E-1,-5.639883041E0,2.031506538E0
9.492794844E0,1.770688742E-1,-5.996413708E0,3.182454109E0
9.511603750E0,3.553341627E-1,-5.724828243E0,2.226521492E0
9.530412656E0,4.127618968E-1,-5.467599869E0,2.608176768E-1
9.549221563E0,1.722832322E0,-5.815755367E0,-1.318923855E1
9.568030469E0,6.915257454E0,-9.646664619E0,-3.151945686E1
9.586839375E0,6.569494724E0,-1.156451225E1,-1.456870079E1
9.605648281E0,4.798805714E0,-1.196531010E1,-3.371487141E0
9.624457188E0,4.442275047E0,-1.127856922E1,-1.701296926E0
9.643266094E0,2.505285263E0,-8.720642090E0,-7.755138397E0
9.662074948E0,1.523031592E0,-6.843472958E0,-6.440282345E0
9.680883854E0,7.537391037E-2,-8.025527000E0,1.056431174E0
9.699692761E0,-9.559326172E-1,-1.043031406E1,1.824527264E0
9.718501667E0,-9.690931439E-2,-1.321197033E1,4.965106845E-1
9.737310573E0,3.290131092E-1,-1.641954803E1,-1.521835208E0
9.756119479E0,5.886343718E-1,-1.605464363E1,-1.182054400E0
9.774928334E0,7.944171429E-1,-1.259462166E1,2.321037948E-1
9.793737240E0,1.520638824E0,-9.659825325E0,1.517049551E0
9.812546146E0,3.255435228E0,-8.703892708E0,2.955136061E0
9.831355052E0,3.906282902E0,-8.871390343E0,3.279363394E0
9.850163959E0,3.999603033E0,-9.330811501E0,2.861815929E0
9.868972813E0,3.870390654E0,-9.513862610E0,1.920240164E0
9.887781719E0,3.652643681E0,-8.718249321E0,-1.653440475E0
9.906590625E0,3.276970625E0,-8.226524353E0,-6.038288116E0
9.925399479E0,2.608176708E0,-8.413164139E0,-5.845665932E0
9.944208386E0,1.460818172E0,-8.457431793E0,-2.292324066E0
9.963017292E0,5.718846321E-1,-8.202595711E0,-6.735795736E-1
9.981826198E0,5.168496966E-1,-7.767102242E0,-1.806581169E-1
1.000063505E1,7.489534616E-1,-6.886543751E0,-1.399801224E-1
1.001944396E1,9.834501147E-1,-6.308676720E0,-4.857429862E-1
1.003825286E1,1.615155339E0,-6.926024914E0,-7.752745152E-1
1.005706172E1,2.476571321E0,-8.233702660E0,-7.932206988E-1
1.007587062E1,2.940778971E0,-9.175278664E0,-1.860419631E0
1.009467948E1,3.402593851E0,-9.793823242E0,-3.190829039E0
1.011348839E1,4.201796532E0,-1.117687416E1,-2.788834810E0
1.013229729E1,4.170690060E0,-1.205504036E1,-2.141576290E0
1.015110615E1,4.045066833E0,-1.182772255E1,-1.616351724E0
1.016991505E1,4.341776848E0,-1.163868904E1,-1.038485050E0
1.018872396E1,3.997210264E0,-1.155135155E1,-1.027717352E0
1.020753281E1,3.693321705E0,-1.188993549E1,-1.823330879E0
1.022634172E1,4.034298897E0,-1.317368507E1,-2.669193745E0
1.024515057E1,4.746163845E0,-1.339861012E1,-2.650051117E0
1.026395948E1,4.101297855E0,-1.083709335E1,-1.714457393E0
1.028276833E1,2.760120869E0,-8.367700577E0,-9.702895880E-1
1.030157724E1,2.267199516E0,-7.990831375E0,-6.999006271E-1
1.032038609E1,2.621337175E0,-9.829715729E0,8.769695163E-1
1.033919500E1,1.666600943E0,-1.303490162E1,8.195417523E-1
1.035800385E1,5.970092416E-1,-1.611924934E1,1.140179992E0
1.037681276E1,6.185446382E-1,-1.843430519E1,5.647061467E-1
1.039562162E1,1.369890928E0,-1.932443619E1,-2.134397745E0
1.041443052E1,5.204389095E-1,-1.543011665E1,-1.716850281E0
1.043323938E1,-3.828516230E-2,-1.119362450E1,-8.243274093E-1
1.045204823E1,-6.652047038E-1,-7.817351341E0,-5.324030519E-1
1.047085714E1,-6.364908218E-1,-5.447260857E0,-1.245464206E0
1.048966599E1,4.821537733E-1,-4.402793884E0,-1.465603828E0
1.050847490E1,2.129612118E-1,-3.895515203E0,8.003991842E-1
1.052728375E1,-8.614161611E-2,-3.577269793E0,2.124826431E0
1.054609260E1,-1.244267747E-1,-3.461217880E0,2.514856577E0
1.056490151E1,-2.548356056E-1,-3.775874138E0,1.923829436E0
1.058371036E1,3.349951655E-2,-4.412364960E0,2.118844509E0
1.060251927E1,-1.830509305E-1,-5.443671703E0,1.940579176E0
1.062132812E1,-2.428714931E-1,-5.948556900E0,8.805587292E-1
1.064013698E1,5.383851007E-2,-6.612565517E0,-2.714657307E0
1.065894589E1,8.709874153E-1,-7.648657799E0,-1.529133320E1
1.067775474E1,2.924029350E0,-9.714859962E0,-2.001117516E1
1.069656359E1,5.352744102E0,-1.082752228E1,-1.274776268E1
1.071537250E1,6.492924213E0,-1.065165043E1,-4.687539577E0
1.073418135E1,7.936992645E0,-1.074616623E1,-3.749552965E0
1.075299021E1,7.838887215E0,-1.013121128E1,-6.595815659E0
1.077179906E1,5.708078384E0,-8.246863365E0,-7.956135273E0
1.079060797E1,3.164507866E0,-6.238088608E0,-7.435696602E0
1.080941682E1,6.005984545E-1,-7.267002583E0,-3.852444589E-1
1.082822568E1,-1.225125194E0,-9.815358162E0,2.493321180E0
1.084703453E1,-5.252245665E-1,-1.198564816E1,1.355534077E0
1.086584339E1,3.026920557E-1,-1.425165176E1,-1.013360381E0
1.088465229E1,-6.891329288E-1,-1.678325844E1,-8.979066849E0
1.090346115E1,1.208375469E-1,-1.238166046E1,2.151147604E0
1.092227000E1,6.460621357E-1,-9.278169632E0,5.816951752E0
1.094107885E1,1.779063582E0,-8.257631302E0,5.777470112E0
1.095988771E1,2.403590441E0,-9.081958771E0,3.311666489E0
1.097869656E1,3.157329559E0,-9.917053223E0,1.259821177E0
1.099750547E1,3.733999729E0,-1.002712345E1,6.879364848E-1
1.101631432E1,3.739981890E0,-9.731609344E0,-9.547362328E-1
1.103512318E1,3.097508907E0,-9.089137077E0,-4.831109047E0
1.105393203E1,2.334198475E0,-8.683553696E0,-3.657429457E0
1.107274089E1,1.347159147E0,-8.141578674E0,-3.385843992E0
1.109154974E1,9.236295223E-1,-8.165507317E0,-1.712064624E0
1.111035859E1,9.499505758E-1,-7.970492363E0,-9.200403094E-1
1.112916745E1,1.100698471E0,-7.566105366E0,-1.782652885E-1
1.114797630E1,1.713261008E0,-6.643671989E0,4.630111754E-1
1.116678516E1,2.240878344E0,-6.272784710E0,8.374879509E-2
1.118559401E1,2.288734913E0,-7.700103283E0,-1.511067510E0
1.120440292E1,2.493321180E0,-9.741181374E0,-2.471785784E0
1.122321177E1,2.673979282E0,-1.044586754E1,-2.742174864E0
1.124202062E1,2.772084951E0,-1.072463131E1,-2.140379906E0
1.126082948E1,2.988635540E0,-1.170329571E1,-1.503889084E0
1.127963833E1,3.219542980E0,-1.255394363E1,-7.573283911E-1
1.129844719E1,3.473181963E0,-1.247019482E1,-4.701896608E-1
1.131725604E1,4.059423447E0,-1.188754272E1,-1.275374413E0
1.133606490E1,4.369294167E0,-1.147837067E1,-2.274377823E0
1.135487370E1,4.161118507E0,-1.143410301E1,-3.091526747E0
1.137368255E1,4.413561344E0,-1.212562847E1,-3.369094372E0
1.139249141E1,4.400400639E0,-1.137428284E1,-3.975674868E0
1.141130026E1,3.791427374E0,-8.642875671E0,-1.708475351E0
1.143010912E1,4.242474556E0,-7.075576782E0,9.655039310E-1
1.144891797E1,4.945964336E0,-7.448856831E0,1.862812400E0
1.146772682E1,4.327419758E0,-1.016829967E1,1.935793519E0
1.148653568E1,2.306680918E0,-1.342253876E1,8.362914920E-1
1.150534453E1,1.032503009E0,-1.708116531E1,8.590233326E-1
1.152415339E1,1.027717352E0,-2.008774567E1,3.469592929E-1
1.154296224E1,1.012163997E0,-2.148874283E1,-2.202593327E0
1.156177104E1,-7.298108935E-1,-1.649133301E1,-1.629512191E0
1.158057990E1,-1.322034478E0,-1.131924725E1,-6.077769399E-1
1.159938875E1,-1.452443361E0,-7.603193760E0,-4.761717021E-1
1.161819760E1,-1.335195065E0,-5.091926575E0,2.464607358E-1
1.163700646E1,-5.156532526E-1,-3.511467218E0,8.602197170E-1
1.165581531E1,8.458628058E-1,-3.080759048E0,9.212366939E-1
1.167462417E1,6.783652306E-1,-3.089133978E0,1.939382792E0
1.169343297E1,2.847459018E-1,-3.272184849E0,2.313859463E0
1.171224182E1,-7.298108935E-2,-3.790230989E0,1.573280931E0
1.173105068E1,-2.727817893E-1,-4.833501816E0,1.349551916E0
1.174985953E1,-2.859423161E-1,-5.927021503E0,1.101894855E0
1.176866833E1,-5.874379873E-1,-6.350551128E0,-1.674975902E-1
1.178747719E1,-6.065805554E-1,-6.055037498E0,-2.550748825E0
1.180628604E1,2.105683982E-1,-6.345765591E0,-1.140419292E1
1.182509490E1,2.774477959E0,-9.598808289E0,-1.843909073E1
1.184390370E1,5.056034088E0,-1.205025482E1,-1.317607784E1
1.186271255E1,6.226124287E0,-1.215673542E1,-6.552744865E0
1.188152141E1,7.615158081E0,-1.151545906E1,-5.404190063E0
1.190033026E1,7.501499176E0,-9.810572624E0,-7.288537979E0
1.191913906E1,6.684350014E0,-8.230113029E0,-9.218349457E0
1.193794792E1,4.152743816E0,-1.003908730E1,-3.022135019E0
1.195675672E1,8.745766878E-1,-1.230150127E1,2.175075769E0
1.197556557E1,-2.356930375E-1,-1.395494175E1,8.853443712E-2
1.199437443E1,-9.475577474E-1,-1.482114315E1,-4.454239368E0
1.201318323E1,-5.479564071E-1,-1.165902805E1,1.167697430E0
1.203199208E1,-6.580262184E-1,-8.581858635E0,3.604787350E0
1.205080094E1,3.864408433E-1,-8.435895920E0,4.977071285E0
1.206960974E1,1.454836130E0,-1.004387283E1,4.473381996E0
1.208841859E1,2.435893536E0,-1.082752228E1,2.740978241E0
1.210722745E1,3.038884640E0,-1.010967541E1,1.789831281E0
1.212603625E1,2.904886723E0,-9.134600639E0,1.755135417E0
1.214484510E1,2.554338217E0,-8.489734650E0,1.606780410E0
1.216365391E1,2.285145521E0,-7.345965385E0,-3.208775282E0
1.218246276E1,2.124826431E0,-6.543173313E0,-5.942574978E0
1.220127162E1,2.027917147E0,-7.210771084E0,-5.351547718E0
1.222008042E1,1.160519004E0,-8.213363647E0,-4.106083870E0
1.223888927E1,3.254238665E-1,-8.319844246E0,-1.339980721E0
1.225769807E1,9.272187948E-1,-7.915457249E0,1.018146038E0
1.227650693E1,2.237289190E0,-7.722835064E0,2.414358139E0
1.229531573E1,3.293720484E0,-7.989634991E0,2.538784742E0
1.231412458E1,3.370290756E0,-8.397610664E0,9.451649189E-1
1.233293339E1,3.585644722E0,-9.629914284E0,-2.914458036E0
1.235174224E1,3.911068678E0,-1.194975662E1,-6.362515450E0
1.237055104E1,3.159722328E0,-1.402433395E1,-6.894918442E0
1.238935990E1,1.908276081E0,-1.300618744E1,-3.346362352E0
1.240816870E1,3.206382275E0,-1.175713444E1,-5.778666735E-1
1.242697755E1,4.370490551E0,-1.119601727E1,5.168496966E-1
1.244578635E1,5.980860233E0,-1.218784237E1,3.948157281E-2
1.246459521E1,7.660621643E0,-1.341894913E1,-1.004985452E0
1.248340401E1,8.348558426E0,-1.282672596E1,-9.248259664E-1
1.250221286E1,5.809773445E0,-1.097228813E1,-9.224331379E-1
1.252102167E1,2.370090723E0,-1.001515961E1,-5.718846321E-1
1.253983052E1,1.445264935E0,-1.154656601E1,3.756731451E-1
1.255863932E1,1.076770186E0,-1.417627811E1,5.958128572E-1
1.257744812E1,4.450650215E-1,-1.678804398E1,9.044869542E-1
1.259625698E1,-1.112662554E-1,-1.865324974E1,1.373480201E0
1.261506578E1,-3.182454109E-1,-1.890090561E1,1.312463164E0
1.263387464E1,-1.310070395E0,-1.632981873E1,4.522434771E-1
1.265268344E1,-2.798406124E0,-1.209691525E1,-1.004985496E-1
1.267149224E1,-2.493321180E0,-8.008777618E0,-3.553341627E-1
1.269030109E1,-1.499103427E0,-4.883750916E0,-1.487139225E0
1.270910990E1,-1.351944804E-1,-2.971885681E0,-3.108276606E0
1.272791870E1,5.503492057E-2,-2.405983210E0,-8.039883971E-1
1.274672755E1,-3.481557071E-1,-2.276770830E0,1.435693622E0
1.276553635E1,-6.340979934E-1,-2.216950178E0,2.164308071E0
1.278434516E1,-6.460621208E-2,-2.414358139E0,3.359523058E0
1.280315401E1,3.361915946E-1,-3.073580742E0,3.486342669E0
1.282196281E1,1.314856052E0,-4.107280254E0,4.738985062E0
1.284077162E1,1.606780410E0,-4.565505505E0,3.121437073E0
1.285958047E1,9.224331379E-1,-5.373083115E0,9.870393276E-1
1.287838927E1,3.797409534E0,-8.039883614E0,-2.518924332E1
1.289719807E1,6.866204739E0,-1.368096352E1,-3.572962952E1
1.291600688E1,6.254838467E0,-1.337827110E1,-6.786045074E0
1.293481573E1,5.517848969E0,-1.206939697E1,1.674975827E-2
1.295362453E1,4.376472473E0,-1.118405342E1,-9.080761909E0
1.297243333E1,2.127219439E0,-8.488538742E0,-1.189591789E1
1.299124214E1,8.470591903E-1,-5.830112457E0,-8.319844246E0
1.301005099E1,-2.416750938E-1,-7.463213921E0,1.691725612E0
1.302885979E1,-1.306481123E0,-9.467203140E0,4.019941807E0
1.304766859E1,-9.750752449E-1,-1.322752380E1,1.540977836E0
1.306647740E1,1.399801224E-1,-1.771765518E1,-1.219143152E0
1.308528620E1,7.202396393E-1,-1.832184219E1,-8.614161611E-1
1.310409505E1,7.190431952E-1,-1.314616776E1,2.987439156E0
1.312290385E1,1.433300734E0,-9.406186104E0,5.133800983E0
1.314171266E1,2.215753794E0,-7.868797302E0,6.154339790E0
1.316052146E1,3.006581545E0,-8.029116631E0,4.419543266E0
1.317933026E1,3.416950703E0,-8.519644737E0,2.386840582E0
1.319813912E1,3.771088600E0,-8.650053978E0,1.814955950E0
1.321694792E1,4.587040901E0,-9.085547447E0,1.726421595E0
1.323575672E1,4.388436794E0,-8.104490280E0,-4.656432629E0
1.325456552E1,3.859622955E0,-7.555337429E0,-7.536194801E0
1.327337432E1,2.945564747E0,-8.050651550E0,-6.833901405E0
1.329218313E1,1.588834286E0,-8.240880966E0,-3.201596737E0
1.331099193E1,0.000000000E0,-7.613961697E0,-2.129612118E-1
1.332980073E1,2.727817893E-1,-7.153343201E0,2.151147604E0
1.334860958E1,1.489532113E0,-7.127022266E0,3.026920557E0
1.336741839E1,2.403590441E0,-7.835297585E0,2.102094650E0
1.338622719E1,2.289931297E0,-8.760123253E0,-4.845465720E-1
1.340503599E1,2.650051117E0,-1.114816093E1,-4.272384644E0
1.342384479E1,3.527020693E0,-1.359003639E1,-7.641479015E0
1.344265359E1,4.057030678E0,-1.302532959E1,-5.093122959E0
1.346146240E1,4.089334011E0,-1.119242764E1,-6.233302951E-1
1.348027120E1,5.102694511E0,-1.091964626E1,1.607976794E0
1.349908000E1,5.510670662E0,-1.122832012E1,1.128215909E0
1.351788880E1,5.034498692E0,-1.165902805E1,-1.215553880E0
1.353669760E1,4.741377831E0,-1.253599739E1,-2.994617462E0
1.355550641E1,4.855037212E0,-1.255035496E1,-3.408575773E0
1.357431521E1,3.460021496E0,-1.007737255E1,-2.606980324E0
1.359312401E1,2.141576290E0,-8.756534576E0,-1.655833244E0
1.361193281E1,1.995614052E0,-9.729216576E0,8.039883971E-1
1.363074162E1,2.293520451E0,-1.223689461E1,1.964507341E0
1.364955042E1,1.610369682E0,-1.571486282E1,1.249053478E0
1.366835922E1,8.865407705E-1,-1.856471443E1,1.329213023E0
1.368716802E1,7.740781307E-1,-2.012124634E1,1.339980721E0
1.370597682E1,5.383850932E-1,-1.926222229E1,-1.793420553E0
1.372478562E1,-5.946164131E-1,-1.446580887E1,-2.292324066E0
1.374359443E1,-1.775474429E0,-9.936196327E0,-4.331009090E-1
1.376240323E1,-9.391828775E-1,-6.685546398E0,-6.185446382E-1
1.378121203E1,-1.890329868E-1,-4.669593334E0,-7.740781307E-1
1.380002083E1,4.283152521E-1,-3.571287870E0,9.870393276E-1
1.381882964E1,3.720839322E-1,-2.846262455E0,2.884547710E0
1.383763844E1,8.614161611E-2,-2.578266382E0,3.471985579E0
1.385644719E1,-3.385843933E-1,-2.481357098E0,2.809173822E0
1.387525599E1,-6.281159520E-1,-2.962314367E0,2.249253273E0
1.389406479E1,-3.218346536E-1,-3.872783422E0,2.043470621E0
1.391287359E1,2.237289101E-1,-4.721039295E0,1.634297848E0
1.393168240E1,6.508477330E-1,-5.534598827E0,-2.799602449E-1
1.395049120E1,4.393222332E0,-8.021938324E0,-1.926700783E1
1.396930000E1,4.792823792E0,-1.071386337E1,-2.137029839E1
1.398810875E1,5.407779217E0,-1.129771233E1,-1.197488117E1
1.400691755E1,6.263213158E0,-9.798608780E0,-1.895115495E0
1.402572635E1,5.249852657E0,-9.609575272E0,-4.213760853E0
1.404453516E1,2.742174864E0,-9.501898766E0,-9.316454887E0
1.406334396E1,1.666600943E0,-7.336394310E0,-1.150229836E1
1.408215276E1,5.324030519E-1,-5.036891460E0,-5.257031441E0
1.410096151E1,-1.616351724E0,-6.831508636E0,3.888336897E0
1.411977031E1,-1.579262972E0,-1.034536839E1,3.144168854E0
1.413857912E1,-4.785645287E-3,-1.524945831E1,1.136590764E-1
1.415738792E1,1.560120344E0,-2.089293098E1,-1.224407387E1
1.417619667E1,1.402194023E0,-1.752264023E1,1.022931695E0
1.419500547E1,9.870393276E-1,-1.173081303E1,3.384647608E0
1.421381427E1,1.825723648E0,-8.147561073E0,4.407579422E0
1.423262307E1,1.647458434E0,-6.876972198E0,4.076173306E0
1.425143182E1,2.459821701E0,-7.600800991E0,3.462414265E0
1.427024063E1,3.119044304E0,-8.823533058E0,2.281556368E0
1.428904943E1,3.765106440E0,-9.784252167E0,1.319641709E0
1.430785823E1,4.394418716E0,-9.978070259E0,4.450650215E-1
1.432666698E1,4.855037212E0,-9.232706070E0,-5.952146530E0
1.434547578E1,4.334598064E0,-8.426324844E0,-6.833901405E0
1.436428458E1,3.511467218E0,-8.398807526E0,-2.297109842E0
1.438309339E1,1.590030670E0,-7.477570534E0,-6.723831892E-1
1.440190214E1,5.718846321E-1,-6.961917400E0,-6.711867452E-1
1.442071094E1,8.003991842E-1,-6.906882763E0,-5.443671346E-1
1.443951974E1,1.308874011E0,-7.238288403E0,1.184447184E-1
1.445832849E1,1.679761529E0,-8.096115112E0,4.462614357E-1
1.447713729E1,2.037488461E0,-9.182456970E0,4.474578202E-1
1.449594604E1,2.072184324E0,-9.622735977E0,-5.587241054E-1
1.451475484E1,1.913061738E0,-1.038963604E1,-2.634497643E0
1.453356365E1,2.304288149E0,-1.169731331E1,-3.711267948E0
1.455237240E1,3.016152859E0,-1.189113235E1,-4.051048756E0
1.457118120E1,4.124029636E0,-1.204666519E1,-2.854637384E0
1.458999000E1,4.570291042E0,-1.244028473E1,-9.355936646E-1
1.460879875E1,4.308277130E0,-1.300618744E1,-7.226324677E-1
1.462760755E1,3.518645763E0,-1.320957756E1,-1.874776483E0
1.464641630E1,2.868994236E0,-1.289611721E1,-3.241078377E0
1.466522510E1,2.285145521E0,-1.139701462E1,-3.473181963E0
1.468403391E1,2.161915302E0,-9.134600639E0,-2.100898266E0
1.470284266E1,2.080559254E0,-7.623532772E0,-4.141975880E0
1.472165146E1,3.482753277E0,-8.532805443E0,1.301695466E0
1.474046021E1,3.379862070E0,-1.159561825E1,1.987239242E0
1.475926901E1,2.311466694E0,-1.536670685E1,1.432104349E0
1.477807781E1,1.378265858E0,-1.871306992E1,1.708475351E0
1.479688656E1,1.788634896E0,-2.191586304E1,-1.020538807E0
1.481569537E1,1.300499082E0,-1.965105629E1,-1.493121386E0
1.483450412E1,5.982056856E-1,-1.414756393E1,-2.416750938E-1
1.485331292E1,8.853443712E-2,-9.464810371E0,2.404786795E-1
1.487212167E1,1.878365725E-1,-6.184250355E0,-6.867401004E-1
1.489093047E1,5.575276613E-1,-4.072584152E0,-1.586441398E0
1.490973922E1,1.663011760E-1,-3.062813044E0,1.316052437E0
1.492854802E1,1.615155339E-1,-2.744567633E0,2.281556368E0
1.494735677E1,3.708875179E-2,-2.583052158E0,3.287738323E0
1.496616557E1,3.038884699E-1,-2.871387243E0,4.076173306E0
1.498497432E1,5.383850932E-1,-3.266202927E0,1.829312921E0
1.500378313E1,-5.264209956E-2,-3.705285788E0,-8.195417523E-1
1.502259188E1,-1.281356573E0,-4.211368084E0,-3.105883837E0
1.504140068E1,-1.724028707E0,-5.154139996E0,-4.520041943E0
1.506020943E1,-1.732403636E0,-6.561119556E0,-5.440082073E0
1.507901823E1,-2.396411896E0,-8.354539871E0,-8.132007599E0
1.509782698E1,-2.033899277E-1,-1.052243805E1,-1.323470211E1
1.511663578E1,5.581258774E0,-1.183849049E1,-1.163629627E1
1.513544453E1,9.267401695E0,-1.240439224E1,-6.768098831E0
1.515425333E1,1.234337521E1,-1.200120163E1,-6.579065800E0
1.517306208E1,1.193539906E1,-9.625128746E0,-7.173682213E0
1.519187089E1,8.140382767E0,-7.071987152E0,-5.808577061E0
1.521067964E1,4.356133461E0,-8.788837433E0,-3.113062143E0
1.522948844E1,9.726824164E-1,-1.114816093E1,2.559123755E0
1.524829719E1,2.667997181E-1,-1.286740398E1,1.465603828E0
1.526710594E1,-1.793420553E0,-1.477089405E1,-9.081958771E0
1.528591474E1,-1.118644595E0,-1.426241970E1,5.335994363E-1
1.530472349E1,-2.275574446E0,-1.081436157E1,4.876572609E0
1.532353229E1,-1.482353687E0,-9.299705505E0,5.158925533E0
1.534234104E1,2.273181528E-1,-9.308079720E0,3.440878868E0
1.536114984E1,1.532602906E0,-1.027119160E1,2.514856577E0
1.537995859E1,2.222932339E0,-1.016112137E1,1.762313843E0
1.539876734E1,2.013560295E0,-9.257830620E0,1.983649969E0
1.541757615E1,1.421336651E0,-8.776873589E0,1.731207132E0
1.543638490E1,1.332802176E0,-8.437092781E0,3.684946895E-1
1.545519365E1,1.420140266E0,-6.955935478E0,-4.151547432E0
1.547400245E1,1.040877819E0,-7.077969551E0,-5.361119270E0
1.549281120E1,5.156532526E-1,-7.420143127E0,-5.495117188E0
1.551162000E1,-4.366901219E-1,-7.925028801E0,-4.752145767E0
1.553042875E1,-2.057827413E-1,-7.830512047E0,-2.391626120E0
1.554923755E1,1.655833244E0,-8.020741463E0,2.679961324E-1
1.556804630E1,2.945564747E0,-7.802994728E0,2.285145521E0
1.558685505E1,3.594019651E0,-7.944170952E0,2.517249346E0
1.560566385E1,3.564109325E0,-8.752944946E0,5.623133108E-2
1.562447260E1,3.444468260E0,-1.044108200E1,-2.236092806E0
1.564328135E1,3.337987661E0,-1.300738430E1,-5.619544029E0
1.566209016E1,2.701496840E0,-1.375274849E1,-6.550352097E0
1.568089891E1,2.758924484E0,-1.219262791E1,-3.194418192E0
1.569970766E1,3.787838221E0,-1.122951698E1,-1.338784218E0
1.571851646E1,4.424329281E0,-1.080359459E1,-1.205982566E0
1.573732521E1,5.152943611E0,-1.157408333E1,-1.587637782E0
1.575613396E1,6.380461693E0,-1.338784313E1,-2.080559254E0
1.577494276E1,6.010770321E0,-1.201795197E1,-2.822334290E0
1.579375151E1,3.712464333E0,-8.980263710E0,-8.721838593E-1
1.581256026E1,3.182454109E0,-8.082955360E0,9.080761671E-1
1.583136906E1,3.506681681E0,-1.032742214E1,1.232303619E0
1.585017781E1,2.530410051E0,-1.443948841E1,2.356930375E-1
1.586898656E1,1.502692580E0,-1.850967979E1,1.006181955E0
1.588779536E1,1.247856975E0,-2.186680984E1,1.666600943E0
1.590660412E1,1.025324464E0,-2.348076820E1,-2.883351147E-1
1.592541286E1,-1.097109199E0,-1.810409546E1,-1.623530149E0
1.594422167E1,-2.331805706E0,-1.163510036E1,2.117647976E-1
1.596303042E1,-1.753939033E0,-7.402196884E0,4.163511395E-1
1.598183917E1,-5.551348329E-1,-4.664807796E0,5.467599630E-1
1.600064792E1,1.471585929E-1,-2.645265341E0,2.392822690E-2
1.601945672E1,9.966106415E-1,-1.911865234E0,6.101697683E-2
1.603826547E1,6.879364848E-1,-1.836491346E0,2.462214470E0
1.605707422E1,-1.016949639E-1,-1.816152334E0,2.885744095E0
1.607588302E1,-5.132604837E-1,-2.560320139E0,3.066402197E0
1.609469177E1,-7.692924738E-1,-3.792623997E0,3.134597778E0
1.611350052E1,-8.147560954E-1,-5.082355499E0,2.443071842E0
1.613230927E1,-7.154539824E-1,-6.046662807E0,1.424925923E0
1.615111807E1,-2.644068897E-1,-6.713063717E0,1.459621787E-1
1.616992682E1,-1.079162955E0,-8.471788406E0,-1.254915810E1
1.618873557E1,-1.501496196E0,-1.177268696E1,-2.353819656E1
1.620754432E1,2.293520451E0,-1.324905872E1,-1.935195351E1
1.622635312E1,6.367300987E0,-1.095793152E1,-6.543173313E0
1.624516188E1,7.947760582E0,-9.548559189E0,-3.376272678E0
1.626397063E1,7.402196884E0,-8.476573944E0,-7.149754047E0
1.628277938E1,6.738188744E0,-7.613961697E0,-1.082752228E1
1.630158818E1,4.216153622E0,-8.295916557E0,-4.112065792E0
1.632039693E1,3.385843933E-1,-1.069113159E1,3.266202927E0
1.633920568E1,-6.257231236E-1,-1.243908882E1,2.545963287E0
1.635801443E1,4.223332107E-1,-1.472303772E1,5.659025311E-1
1.637682318E1,-1.482353687E0,-1.570409489E1,-6.439085960E0
1.639563198E1,-1.170090318E0,-1.177627659E1,2.009970903E0
1.641444073E1,-5.252245665E-1,-9.239884377E0,3.900300980E0
1.643324948E1,1.031306505E0,-8.983852386E0,3.273381472E0
1.645205823E1,1.757528186E0,-9.754341125E0,2.049452543E0
1.647086698E1,2.388036966E0,-1.025922680E1,1.741974831E0
1.648967578E1,2.900100946E0,-1.046381378E1,1.450050473E0
1.650848453E1,3.107080221E0,-1.032502937E1,1.554138303E0
1.652729328E1,2.834298372E0,-9.153742790E0,-5.383850932E-1
1.654610203E1,3.308077335E0,-7.956135273E0,-4.211368084E0
1.656491078E1,3.314059258E0,-7.885547161E0,-3.150151014E0
1.658371953E1,2.248056889E0,-7.629515171E0,-2.645265341E0
1.660252833E1,8.159525394E-1,-6.926024914E0,-3.008974552E0
1.662133708E1,1.316052489E-2,-6.563512325E0,-2.656033039E0
1.664014583E1,1.938186288E-1,-6.836294174E0,-1.418943882E0
1.665895458E1,1.548156261E0,-7.462017536E0,2.261217386E-1
1.667776333E1,2.684746981E0,-8.456234932E0,8.745766878E-1
1.669657208E1,3.231507063E0,-9.206384659E0,-2.512463741E-2
1.671538083E1,3.586841106E0,-9.553344727E0,-1.789831281E0
1.673418964E1,4.011567116E0,-1.028315544E1,-3.272184849E0
1.675299839E1,4.963910580E0,-1.186840057E1,-3.064009428E0
1.677180714E1,5.351547718E0,-1.239003563E1,-1.043270707E0
1.679061589E1,5.084748268E0,-1.171167088E1,-1.722832322E-1
1.680942464E1,4.226921082E0,-1.163510036E1,-1.259821177E0
1.682823339E1,3.476771355E0,-1.274058437E1,-2.360519648E0
1.684704214E1,3.272184849E0,-1.420020580E1,-2.816352367E0
1.686585089E1,3.225524902E0,-1.330887985E1,-2.256431818E0
1.688465964E1,2.444268227E0,-1.045424175E1,-1.100698471E0
1.690346844E1,2.233700037E0,-8.865407944E0,-1.001396298E0
1.692227719E1,2.593819857E0,-9.415757179E0,-1.672582984E0
1.694108594E1,2.346162558E0,-1.184088326E1,7.920243144E-1
1.695989469E1,1.655833244E0,-1.515374565E1,9.164510965E-1
1.697870344E1,1.048056364E0,-1.791267014E1,6.424728632E-1
1.699751219E1,1.380658627E0,-1.978744698E1,-1.904686809E0
1.701632094E1,4.498506486E-1,-1.687897110E1,-1.585245013E0
1.703512969E1,-4.223332107E-1,-1.256949711E1,-6.448656917E-1
1.705393844E1,-9.391828775E-1,-9.029315948E0,8.662018180E-1
1.707274719E1,-2.464607358E-1,-6.762116909E0,5.467599630E-1
1.709155594E1,5.623133108E-2,-4.993820667E0,-2.464607358E-1
1.711036469E1,4.211367965E-1,-4.135993958E0,2.632105052E-1
1.712917344E1,5.862415433E-1,-3.649054527E0,1.923829436E0
1.714798219E1,1.375873089E-1,-3.250649452E0,3.020938635E0
1.716679094E1,-1.962114573E-1,-3.245863914E0,2.974278450E0
1.718559969E1,-3.194418252E-1,-3.633501291E0,3.026920557E0
1.720440844E1,-5.288137794E-1,-4.274777889E0,1.977667928E0
1.722321719E1,-5.156532526E-1,-4.796412945E0,1.131805062E0
1.724202599E1,-3.314059377E-1,-4.975874901E0,3.696911037E-1
1.726083469E1,1.818545163E-1,-5.539384365E0,-6.954739094E0
1.727964349E1,9.128618240E-1,-7.822137356E0,-1.413081455E1
1.729845219E1,4.517649174E0,-1.293559933E1,-2.407418823E1
1.731726094E1,7.353144169E0,-1.509392548E1,-1.309591866E1
1.733606969E1,8.532805443E0,-1.371924877E1,-4.346562386E0
1.735487844E1,7.829315662E0,-1.025683403E1,-2.006381750E0
1.737368719E1,7.484749317E0,-6.800402164E0,-6.354140759E0
1.739249594E1,6.701099873E0,-4.997410297E0,-7.783852100E0
1.741130469E1,2.463410854E0,-8.362915039E0,1.194018483E0
1.743011344E1,3.661018610E-1,-1.167218876E1,2.227717876E0
1.744892219E1,-2.835494876E-1,-1.408295727E1,-5.180460930E0
1.746773094E1,-1.685743570E0,-1.606780434E1,-7.950153351E0
1.748653969E1,-1.591227055E0,-1.337109280E1,3.890729666E0
1.750534844E1,-1.658226132E0,-1.040638542E1,5.131408215E0
1.752415719E1,-1.088734269E-1,-9.512666702E0,3.973282099E0
1.754296594E1,8.195417523E-1,-9.421739578E0,2.944368362E0
1.756177469E1,1.897508383E0,-9.433703423E0,1.993221283E0
1.758058344E1,2.571087837E0,-8.673981667E0,1.862812400E0
1.759939219E1,2.635694027E0,-8.429914474E0,2.008774519E0
1.761820094E1,2.419143677E0,-8.614161491E0,1.288534999E0
1.763700969E1,2.457428932E0,-7.890332699E0,-4.193421841E0
1.765581844E1,2.014756680E0,-7.634300709E0,-4.874179840E0
1.767462714E1,1.530210137E0,-7.767102242E0,-3.976871252E0
1.769343589E1,7.872386575E-1,-7.610372543E0,-3.394218922E0
1.771224464E1,-2.871387079E-2,-7.268198967E0,-1.954936147E0
1.773105339E1,6.951149702E-1,-6.830312252E0,4.043870270E-1
1.774986214E1,1.798206210E0,-7.312466145E0,1.965703845E0
1.776867089E1,2.763710260E0,-8.170292854E0,2.197807550E0
1.778747964E1,3.036491871E0,-9.043673515E0,1.806581169E-1
1.780628839E1,3.503092289E0,-1.049850941E1,-3.058027267E0
1.782509708E1,3.994817495E0,-1.263649654E1,-5.466403484E0
1.784390583E1,4.110869408E0,-1.384128284E1,-4.788038254E0
1.786271458E1,4.128815651E0,-1.277767277E1,-1.655833244E0
1.788152333E1,4.283152580E0,-1.157408333E1,3.828516304E-1
1.790033208E1,3.833301783E0,-1.153340530E1,8.662018180E-1
1.791914083E1,3.509074450E0,-1.292363548E1,-3.720839322E-1
1.793794958E1,3.477967739E0,-1.433181095E1,-2.596212626E0
1.795675828E1,2.975475073E0,-1.259342575E1,-3.286541939E0
1.797556703E1,2.845066071E0,-9.809376717E0,-1.776670814E0
1.799437578E1,2.950350285E0,-8.408378601E0,-1.739582062E0
1.801318453E1,3.209971666E0,-8.597412109E0,-6.149554253E-1
1.803199328E1,2.763710260E0,-1.082871914E1,1.330409408E0
1.805080203E1,1.576870084E0,-1.454357624E1,7.597211599E-1
1.806961073E1,7.022934556E-1,-1.775235176E1,9.248259664E-1
1.808841948E1,8.662018180E-1,-2.089053726E1,-1.672582984E0
1.810722823E1,-3.194418252E-1,-1.873221207E1,-1.877169371E0
1.812603698E1,-1.094716311E0,-1.338305664E1,-4.977070987E-1
1.814484573E1,-1.503889084E0,-9.176474571E0,5.694918036E-1
1.816365448E1,-7.992027402E-1,-6.273981094E0,3.254238665E-1
1.818246318E1,-1.770688742E-1,-4.114458561E0,-4.845465720E-1
1.820127193E1,4.893322289E-1,-3.025724173E0,-4.929214716E-1
1.822008068E1,5.371887088E-1,-2.953939438E0,1.034895778E0
1.823888943E1,1.064806059E-1,-3.080759048E0,2.187039852E0
1.825769818E1,-4.414757788E-1,-3.491128206E0,2.388036966E0
1.827650688E1,-3.373879790E-1,-4.521238327E0,3.069991350E0
1.829531562E1,-4.438686073E-1,-5.690132141E0,2.941975355E0
1.831412438E1,-6.675975323E-1,-5.959324837E0,1.506281853E0
1.833293312E1,-4.498506486E-1,-5.498706341E0,-6.544370055E-1
1.835174182E1,1.295713425E0,-4.418346882E0,-1.127498055E1
1.837055057E1,3.973282099E0,-5.943771362E0,-1.626999664E1
1.838935932E1,6.859025955E0,-1.071147060E1,-1.783729553E1
1.840816807E1,7.062416077E0,-1.375394440E1,-9.924231529E0
1.842697677E1,6.978667259E0,-1.460818195E1,-6.693921566E0
1.844578552E1,4.870590687E0,-1.207537937E1,-7.685746193E0
1.846459427E1,3.180061340E0,-7.661818027E0,-7.780262947E0
1.848340302E1,3.416950703E0,-6.421139717E0,-6.721438885E0
1.850221172E1,1.209571838E0,-1.051525879E1,1.914258122E0
1.852102047E1,-1.128215909E0,-1.261137199E1,1.495514154E0
1.853982922E1,-1.191625714E0,-1.485942841E1,-6.296712875E0
1.855863797E1,-1.085145116E0,-1.383889008E1,-2.252842426E0
1.857744667E1,-1.034895778E0,-9.940981865E0,2.774477959E0
1.859625542E1,-2.787638307E-1,-8.411968231E0,4.378865242E0
1.861506417E1,1.160519004E0,-9.373882294E0,4.088137627E0
1.863387286E1,2.225325108E0,-1.031904793E1,2.604587555E0
1.865268162E1,3.103491068E0,-1.028913784E1,1.625923038E0
1.867149036E1,3.485146284E0,-9.639486313E0,1.586441398E0
1.869029912E1,3.329612732E0,-9.006584167E0,5.527420044E-1
1.870910781E1,2.648854733E0,-7.823333740E0,-3.954139471E0
1.872791656E1,2.889333248E0,-8.003992081E0,-2.901297569E0
1.874672531E1,2.805584431E0,-7.439285755E0,-2.216950178E0
1.876553401E1,1.642672777E0,-6.272784710E0,-2.300698996E0
1.878434276E1,2.273181528E-1,-6.716653347E0,-2.512463808E0
1.880315151E1,2.153540403E-1,-7.904689789E0,-1.673779488E0
1.882196021E1,1.433300734E0,-8.147561073E0,1.447657645E-1
1.884076896E1,2.282752752E0,-7.837690353E0,1.716850281E0
1.885957771E1,2.635694027E0,-7.866404533E0,2.141576290E0
1.887838641E1,3.016152859E0,-8.635697365E0,1.708475351E0
1.889719516E1,2.842673302E0,-1.014197922E1,-4.701896608E-1
1.891600391E1,2.737389088E0,-1.224885941E1,-4.366901398E0
1.893481260E1,2.096112728E0,-1.368814182E1,-6.582654953E0
1.895362135E1,1.713261008E0,-1.271904850E1,-3.169293642E0
1.897243010E1,2.997010469E0,-1.182413292E1,3.589233849E-3
1.899123880E1,4.369294167E0,-1.232901859E1,1.170090318E0
1.901004755E1,4.631308079E0,-1.322991657E1,8.279166222E-1
1.902885625E1,4.438685894E0,-1.398963737E1,-1.447657704E0
1.904766500E1,4.219742775E0,-1.384008598E1,-4.091726780E0
1.906647375E1,3.334398270E0,-1.123669529E1,-3.784249067E0
1.908528245E1,2.920439959E0,-8.416753769E0,-1.387837172E0
1.910409120E1,2.224128723E0,-6.911668301E0,-3.342773199E0
1.912289990E1,3.091526747E0,-8.222934723E0,9.044869542E-1
1.914170865E1,2.428714991E0,-1.087657547E1,2.340180635E0
1.916051740E1,1.501496196E0,-1.431625748E1,1.336391449E0
1.917932609E1,7.238288522E-1,-1.702014732E1,1.624726534E0
1.919813484E1,1.063609719E0,-1.955055809E1,-8.973085135E-2
1.921694354E1,-1.196411345E-2,-1.849532318E1,-3.169293642E0
1.923575229E1,-1.740778446E0,-1.311266804E1,-8.087740541E-1
1.925456104E1,-1.550549030E0,-8.973084450E0,2.440679073E-1
1.927336974E1,-6.855437160E-1,-6.294320107E0,2.943171859E-1
1.929217849E1,5.120640397E-1,-4.679164886E0,-1.086341500E0
1.931098719E1,1.428515077E0,-4.042674065E0,1.304088384E-1
1.932979594E1,1.010967612E0,-3.583251953E0,1.795813441E0
1.934860469E1,3.720839322E-1,-3.592823267E0,3.007778168E0
1.936741339E1,-8.255238086E-2,-3.755535126E0,2.945564747E0
1.938622214E1,-4.534398913E-1,-4.098905087E0,2.331805706E0
1.940503083E1,-7.549355626E-1,-4.578666210E0,1.555334687E0
1.942383958E1,-1.094716311E0,-4.950749874E0,8.386843204E-1
1.944264828E1,-4.761717021E-1,-5.233103275E0,-2.193022013E0
1.946145703E1,8.291130662E-1,-6.125626087E0,-8.711071014E0
1.948026573E1,3.274577856E0,-9.954142570E0,-2.250688934E1
1.949907448E1,6.181857109E0,-1.444068432E1,-2.045265198E1
1.951788318E1,7.305287361E0,-1.404826164E1,-5.094319344E0
1.953669193E1,7.319644451E0,-1.178824043E1,-5.351547718E0
1.955550062E1,4.941178799E0,-7.886743546E0,-8.327022552E0
1.957430938E1,4.350151539E0,-5.450850010E0,-9.728020668E0
1.959311807E1,2.453839540E0,-7.256234646E0,-1.523031592E0
1.961192682E1,-2.584248483E-1,-9.833304405E0,4.043870449E0
1.963073552E1,-9.990034699E-1,-1.161954689E1,2.334198475E0
1.964954427E1,4.905286431E-1,-1.446939850E1,1.387837082E-1
1.966835297E1,9.212366939E-1,-1.676890182E1,-1.517049551E0
1.968716172E1,-8.853443712E-2,-1.481994724E1,-3.409772217E-1
1.970597042E1,-3.900300860E-1,-1.036570740E1,3.964907169E0
1.972477917E1,7.357929349E-1,-7.995616913E0,3.797409534E0
1.974358787E1,1.769492388E0,-7.410571575E0,2.751745939E0
1.976239662E1,2.440679073E0,-8.039883614E0,2.681157827E0
1.978120531E1,2.574677229E0,-8.971888542E0,1.720439434E0
1.980001406E1,2.419143677E0,-8.945567131E0,-9.451649189E-1
1.981882276E1,2.402393818E0,-8.707481384E0,-3.628715515E0
1.983763146E1,2.011167526E0,-8.605786324E0,-3.304488182E0
1.985644021E1,1.379462242E0,-8.340183258E0,-4.132404804E0
1.987524891E1,5.288137794E-1,-7.502695560E0,-3.206382275E0
1.989405766E1,5.922235847E-1,-7.690532207E0,-1.470389485E0
1.991286635E1,1.823330879E0,-7.701299667E0,5.060819983E-1
1.993167510E1,2.449054003E0,-7.176074982E0,1.355534077E0
1.995048380E1,2.690729141E0,-7.245467186E0,1.226321578E0
1.996929250E1,2.998206854E0,-8.232506752E0,1.806581169E-1
1.998810125E1,2.745764017E0,-9.273384094E0,-1.576870084E0
2.000690995E1,2.736192703E0,-1.091725349E1,-3.543770313E0
2.002571870E1,3.404986620E0,-1.311027527E1,-5.564508915E0
2.004452740E1,3.470789194E0,-1.310190010E1,-3.768695593E0
2.006333609E1,3.527020693E0,-1.126301575E1,-8.470591903E-1
2.008214484E1,4.231706619E0,-1.064327526E1,6.472585201E-1
2.010095354E1,4.521238327E0,-1.142572784E1,7.274180651E-1
2.011976229E1,4.715056896E0,-1.285663605E1,-7.692924738E-1
2.013857099E1,4.893322468E0,-1.425763416E1,-2.724228621E0
2.015737969E1,4.284348965E0,-1.290209961E1,-4.219742775E0
2.017618844E1,3.192025423E0,-9.682557106E0,-2.246860504E0
2.019499714E1,2.734996319E0,-7.612765312E0,-2.240878344E0
2.021380583E1,2.652443886E0,-7.584051132E0,-1.294517040E0
2.023261458E1,3.412165165E0,-1.023290634E1,2.309073925E0
2.025142328E1,2.338984251E0,-1.368814182E1,1.627119422E0
2.027023203E1,9.954141974E-1,-1.682752609E1,1.519442320E0
2.028904073E1,7.369893789E-1,-1.917488480E1,1.617548108E0
2.030784943E1,3.960121572E-1,-1.957687759E1,-1.472782373E0
2.032665812E1,-1.269392371E0,-1.507597923E1,-1.314856052E0
2.034546688E1,-1.670190215E0,-1.001156998E1,1.567298770E-1
2.036427557E1,-7.046862841E-1,-6.830312252E0,-1.411765367E-1
2.038308427E1,3.337987661E-1,-4.756931305E0,-2.200200319E0
2.040189302E1,1.288534999E0,-4.083351612E0,-1.125823021E0
2.042070172E1,1.200000525E0,-3.799802303E0,2.413161755E0
2.043951042E1,6.221339107E-1,-3.549752474E0,3.270988464E0
2.045831917E1,-5.982056726E-3,-3.501895905E0,2.484946251E0
2.047712786E1,-2.584248483E-1,-3.681357622E0,2.912065268E0
2.049593656E1,-7.130611539E-1,-4.183850288E0,2.644068956E0
2.051474531E1,-1.094716311E0,-4.789234638E0,1.780260086E0
2.053355401E1,-1.109073281E0,-5.370690346E0,-1.138983607E0
2.055236271E1,-2.500499785E-1,-6.752545357E0,-7.616354465E0
2.057117141E1,3.792623878E-1,-9.413364410E0,-1.741735649E1
2.058998016E1,3.864408493E0,-1.362712479E1,-2.375833511E1
2.060878885E1,6.307480335E0,-1.395015621E1,-7.645068169E0
2.062759755E1,8.239685059E0,-1.231585789E1,-2.676372051E0
2.064640625E1,8.126026154E0,-9.354740143E0,-6.849454880E0
2.066521500E1,7.824530125E0,-6.053841114E0,-1.034776115E1
2.068402370E1,5.919843197E0,-6.313462734E0,-4.609772682E0
2.070283240E1,1.406979680E0,-9.345169067E0,6.034698486E0
2.072164109E1,-4.953143001E-1,-1.154895878E1,2.811566591E0
2.074044979E1,1.160518974E-1,-1.435693550E1,-2.416750938E-1
2.075925854E1,-8.530412912E-1,-1.695554161E1,-7.683353424E0
2.077806724E1,-3.589234054E-1,-1.474696636E1,1.907079697E0
2.079687594E1,-8.518448472E-1,-1.047697353E1,5.624329567E0
2.081568464E1,3.337987661E-1,-8.755337715E0,4.317848682E0
2.083449333E1,1.007378340E0,-8.088936806E0,2.549552441E0
2.085330208E1,1.418943882E0,-8.059026718E0,1.974078655E0
2.087211078E1,1.739582062E0,-8.457431793E0,1.820937991E0
2.089091948E1,1.489532113E0,-8.679964066E0,1.135394335E0
2.090972818E1,1.810170293E0,-8.831908226E0,6.723831892E-1
2.092853688E1,2.133201361E0,-8.435895920E0,-1.792224169E0
2.094734562E1,2.048256159E0,-7.744370461E0,-5.273781300E0
2.096615432E1,2.480160713E0,-8.006384850E0,-5.168497086E0
2.098496302E1,1.885544300E0,-8.612964630E0,-3.628715515E0
2.100377172E1,1.289731383E0,-8.443074226E0,-1.195214868E0
2.102258042E1,1.387837172E0,-7.774280548E0,1.111466169E0
2.104138912E1,1.869990945E0,-7.324429989E0,2.112862349E0
2.106019781E1,2.684746981E0,-7.599604607E0,1.987239242E0
2.107900656E1,2.878565550E0,-8.645268440E0,-1.986042857E-1
2.109781526E1,2.940778971E0,-1.000558758E1,-2.738585472E0
2.111662396E1,3.292523861E0,-1.203948689E1,-6.964310169E0
2.113543266E1,3.582055569E0,-1.255633640E1,-6.291927338E0
2.115424135E1,3.644268990E0,-1.146162033E1,-2.245664120E0
2.117305005E1,4.292723656E0,-1.067916775E1,9.236295223E-1
2.119185875E1,4.893322468E0,-1.064207840E1,1.609173179E0
2.121066745E1,5.168497086E0,-1.207537937E1,5.647061467E-1
2.122947615E1,5.146961689E0,-1.407219028E1,-2.271985054E0
2.124828484E1,4.991427898E0,-1.366899967E1,-4.346562386E0
2.126709359E1,4.293920040E0,-1.098185921E1,-2.252842426E0
2.128590229E1,3.287738323E0,-8.524430275E0,-1.698904037E0
2.130471099E1,2.583052158E0,-8.495717049E0,-7.369893789E-1
2.132351969E1,2.587837696E0,-1.071027374E1,2.115255117E0
2.134232839E1,1.451246977E0,-1.378624725E1,1.712064624E0
2.136113708E1,4.354937077E-1,-1.665763474E1,1.713261008E0
2.137994578E1,5.647061467E-1,-1.917967033E1,-3.529413342E-1
2.139875448E1,3.349951655E-2,-1.865324974E1,-2.773281336E0
2.141756318E1,-9.308080077E-1,-1.372762394E1,-9.296116233E-1
2.143637188E1,-5.826523304E-1,-9.628718376E0,1.998006850E-1
2.145518057E1,3.337987661E-1,-6.727420807E0,2.787638307E-1
2.147398927E1,7.501499057E-1,-5.018945694E0,-3.708875179E-2
2.149279797E1,1.383051515E0,-4.200600147E0,-4.402793646E-1
2.151160667E1,1.375872970E0,-3.862015724E0,1.129412293E0
2.153041536E1,7.908278704E-1,-3.749552965E0,1.878365755E0
2.154922406E1,1.196411327E-1,-3.688536167E0,1.892722726E0
2.156803276E1,7.537391037E-2,-3.966103554E0,2.233700037E0
2.158684146E1,-5.144568533E-2,-4.758127689E0,1.534995675E0
2.160565016E1,-6.975077987E-1,-5.670989513E0,-1.806581169E-1
2.162445885E1,-1.534995675E0,-5.545366287E0,-1.629512191E0
2.164326755E1,-1.100698471E0,-5.763113499E0,-2.665604353E0
2.166207625E1,-3.098705411E-1,-6.953542709E0,-6.272784710E0
2.168088495E1,1.348355532E0,-9.333204269E0,-1.318564892E1
2.169969365E1,5.630311489E0,-1.251446247E1,-2.013201332E1
2.171850234E1,7.856832981E0,-1.291167068E1,-9.644271851E0
2.173731104E1,9.053244591E0,-1.140299606E1,-4.689932346E0
2.175611974E1,1.057866859E1,-9.062815666E0,-7.409375191E0
2.177492844E1,9.184849739E0,-6.908079147E0,-9.455238342E0
2.179373714E1,3.927818298E0,-8.298309326E0,-5.623133108E-2
2.181254583E1,-7.381857634E-1,-1.104168034E1,4.532006264E0
2.183135453E1,-8.685946465E-1,-1.316052437E1,1.475175142E0
2.185016323E1,-3.101098061E0,-1.570409489E1,-1.207059383E1
2.186897193E1,-2.031506538E0,-1.525185108E1,8.805587292E-1
2.188778057E1,-1.923829436E0,-1.182891846E1,5.973681927E0
2.190658927E1,-2.428714931E-1,-1.010249710E1,4.597808838E0
2.192539797E1,8.267202377E-1,-9.550951958E0,3.232703447E0
2.194420667E1,1.329213023E0,-9.571290970E0,3.158525944E0
2.196301536E1,1.715653777E0,-9.720842361E0,2.383251429E0
2.198182406E1,2.307877541E0,-9.463613510E0,2.013560295E0
2.200063276E1,2.919243574E0,-9.129815102E0,1.692921996E0
2.201944146E1,3.035295486E0,-8.794819832E0,-3.326023519E-1
2.203825016E1,2.630908489E0,-7.594819069E0,-4.579862595E0
2.205705885E1,2.622533560E0,-7.470392227E0,-3.312862873E0
2.207586755E1,2.061416626E0,-7.645068169E0,-3.152543783E0
2.209467620E1,1.223928809E0,-8.165507317E0,-3.408575773E0
2.211348490E1,1.044467092E0,-8.170292854E0,-2.002792597E0
2.213229359E1,1.806581140E0,-8.166703224E0,-1.555334684E-2
2.215110229E1,2.810370207E0,-8.025527000E0,1.424925923E0
2.216991099E1,3.205185890E0,-7.980063438E0,1.678565025E0
2.218871969E1,2.756531715E0,-8.161917686E0,-1.208375469E-1
2.220752839E1,2.213361025E0,-8.967103004E0,-4.264009953E0
2.222633708E1,3.119044304E0,-1.160877895E1,-6.196214199E0
2.224514573E1,3.291327477E0,-1.365703487E1,-4.581058979E0
2.226395443E1,1.992024899E0,-1.278844070E1,-1.735992789E0
2.228276313E1,3.133401155E0,-1.188156128E1,6.747759581E-1
2.230157182E1,4.534399033E0,-1.152144146E1,8.997012973E-1
2.232038052E1,4.357329845E0,-1.169611740E1,-7.872386575E-1
2.233918917E1,4.522434711E0,-1.340698528E1,-3.116651535E0
2.235799786E1,4.734199524E0,-1.349671650E1,-4.380061626E0
2.237680656E1,3.662214994E0,-1.040638542E1,-2.816352367E0
2.239561526E1,3.059223652E0,-8.212167740E0,-8.973084688E-1
2.241442396E1,3.608376503E0,-7.612765312E0,1.447657704E0
2.243323260E1,3.712464333E0,-9.692128181E0,2.654836655E0
2.245204130E1,1.933400750E0,-1.274297714E1,1.131805062E0
2.247085000E1,9.415757060E-1,-1.613719559E1,9.367900491E-1
2.248965870E1,8.327022791E-1,-1.947757721E1,-4.307080805E-1
2.250846740E1,1.196411345E-2,-2.058664894E1,-2.093719721E0
2.252727604E1,-1.247856975E0,-1.579143333E1,-3.278166950E-1
2.254608474E1,-1.529013634E0,-1.120678520E1,5.982056856E-1
2.256489344E1,-9.391828775E-1,-7.694121361E0,3.469592929E-1
2.258370214E1,-3.553341627E-1,-5.321637630E0,-4.677968323E-1
2.260251078E1,1.086341500E0,-4.198207378E0,-1.311266780E0
2.262131948E1,1.629512191E0,-3.766302824E0,8.961120844E-1
2.264012818E1,1.185643673E0,-3.812962770E0,2.797209740E0
2.265893688E1,3.110669553E-1,-3.975674868E0,2.840280533E0
2.267774552E1,-3.625126183E-1,-4.103690624E0,1.844866276E0
2.269655422E1,-6.640082598E-1,-4.395615101E0,1.688136339E0
2.271536292E1,-8.470591903E-1,-4.849055290E0,1.539781332E0
2.273417162E1,-9.655039310E-1,-4.972285271E0,-1.268195957E-1
2.275298026E1,-1.097109199E0,-5.491528034E0,-3.174079180E0
2.277178896E1,-6.305087805E-1,-7.153343201E0,-5.876772404E0
2.279059766E1,6.089733839E-1,-1.000319481E1,-1.393938828E1
2.280940635E1,3.416950703E0,-1.315334606E1,-1.990589142E1
2.282821500E1,5.711667538E0,-1.304447269E1,-9.952945709E0
2.284702370E1,7.048058987E0,-1.180140114E1,-4.527220249E0
2.286583240E1,6.613761902E0,-9.775876999E0,-6.258427620E0
2.288464104E1,5.776273727E0,-6.537191391E0,-1.032502937E1
2.290344974E1,4.857429981E0,-4.048655987E0,-8.158329010E0
2.292225844E1,8.075776696E-1,-6.397211552E0,4.815555573E0
2.294106714E1,-1.485942841E0,-1.043749237E1,3.905086517E0
2.295987578E1,-2.476571500E-1,-1.559641838E1,6.233302951E-1
2.297868448E1,1.022931695E0,-2.058186340E1,-2.805584431E0
2.299749318E1,7.058826834E-2,-1.785284996E1,1.022931695E0
2.301630182E1,-2.608176768E-1,-1.124028397E1,4.817948341E0
2.303511052E1,9.535398483E-1,-8.023134232E0,4.088137627E0
2.305391922E1,1.418943882E0,-6.988238335E0,3.115455151E0
2.307272786E1,1.919043779E0,-7.616354465E0,2.660818815E0
2.309153656E1,2.575873613E0,-8.884550095E0,1.657029629E0
2.311034526E1,2.807977438E0,-9.443274498E0,-6.101697683E-2
2.312915391E1,2.388036966E0,-9.702896118E0,-3.154936552E0
2.314796260E1,2.721835852E0,-9.492327690E0,-2.590230465E0
2.316677125E1,2.232503414E0,-8.543573380E0,-2.358126640E0
2.318557995E1,6.675975323E-1,-7.104290485E0,-2.824727058E0
2.320438865E1,2.440679073E-1,-7.657032490E0,-2.291127682E0
2.322319729E1,9.643075466E-1,-7.974081516E0,-1.026520967E0
2.324200599E1,1.877169371E0,-7.586444378E0,3.912265003E-1
2.326081469E1,2.304288149E0,-7.258627415E0,1.159322619E0
2.327962333E1,2.729014158E0,-7.440482140E0,1.150947690E0
2.329843203E1,2.530410051E0,-7.936992645E0,-1.184447184E-1
2.331724073E1,2.207378864E0,-9.390632629E0,-2.626122952E0
2.333604938E1,2.847458839E0,-1.198923779E1,-4.212564468E0
2.335485807E1,3.512663603E0,-1.452921867E1,-4.849055290E0
2.337366672E1,2.719442844E0,-1.471107388E1,-3.031706333E0
2.339247542E1,3.058027267E0,-1.293559933E1,-5.611169338E-1
2.341128412E1,4.080958843E0,-1.174756241E1,-1.848455548E0
2.343009276E1,4.554738045E0,-1.145803165E1,-3.473181963E0
2.344890146E1,5.471189022E0,-1.219023514E1,-3.092723370E0
2.346771010E1,5.572884083E0,-1.085982513E1,-2.458625317E0
2.348651880E1,4.750949383E0,-8.470592499E0,-1.158126116E0
2.350532750E1,4.474578381E0,-7.629515171E0,4.474578202E-1
2.352413615E1,4.322634220E0,-9.767501831E0,1.422533035E0
2.354294484E1,2.751745939E0,-1.289851093E1,1.841277003E0
2.356175349E1,1.463211060E0,-1.668395615E1,1.142572761E0
2.358056219E1,1.076770186E0,-2.070629120E1,5.670989752E-1
2.359937083E1,1.998006850E-1,-2.301057816E1,-8.997012973E-1
2.361817953E1,-1.549352646E0,-1.935554314E1,-5.180460811E-1
2.363698823E1,-2.368894339E0,-1.398724461E1,6.173482537E-1
2.365579688E1,-2.404786825E0,-9.475577354E0,6.005984545E-1
2.367460557E1,-1.724028707E0,-6.187839508E0,-6.364908218E-1
2.369341422E1,-4.965106845E-1,-4.137190342E0,-1.379462242E0
2.371222292E1,1.088734269E-1,-3.071187973E0,9.930213690E-1
2.373103162E1,-8.494520187E-2,-2.190629244E0,2.307877541E0
2.374984026E1,-2.667997181E-1,-2.059023857E0,2.307877541E0
2.376864896E1,-3.601198196E-1,-2.327019930E0,3.176471949E0
2.378745760E1,-3.038884699E-1,-2.840280533E0,3.298506021E0
2.380626630E1,-1.220339537E-1,-3.500699520E0,3.071187973E0
2.382507495E1,-5.982056633E-2,-4.042674065E0,1.829312921E0
2.384388365E1,5.766702294E-1,-4.509274483E0,-2.152343988E0
2.386269229E1,2.416750908E0,-5.639883041E0,-1.185643578E1
2.388150099E1,3.507878065E0,-8.941978455E0,-2.053161430E1
2.390030964E1,4.595416069E0,-1.223689461E1,-1.767937088E1
2.391911833E1,6.088537216E0,-1.305045509E1,-5.474778175E0
2.393792698E1,6.466603279E0,-1.316889954E1,-6.105287075E0
2.395673568E1,4.978267670E0,-1.147717381E1,-8.872586250E0
2.397554432E1,2.857030153E0,-8.537590981E0,-9.523433685E0
2.399435302E1,1.708475351E0,-6.441478729E0,-6.357729912E0
2.401316172E1,-7.573283911E-1,-8.772088051E0,1.887937069E0
2.403197037E1,-2.166700840E0,-1.106321526E1,1.728814363E0
2.405077906E1,-1.366301775E0,-1.254197979E1,4.223332107E-1
2.406958771E1,-9.559326172E-1,-1.549352646E1,-6.334998131E0
2.408839635E1,-2.943171859E-1,-1.506880093E1,9.678967595E-1
2.410720505E1,5.467599630E-1,-1.130608654E1,5.343173027E0
2.412601375E1,1.927418590E0,-9.766305923E0,5.430510998E0
2.414482240E1,2.901297569E0,-9.378668785E0,3.900300980E0
2.416363109E1,3.667000771E0,-9.494720459E0,2.416750908E0
2.418243974E1,4.303491592E0,-9.194420815E0,-5.288137794E-1
2.420124839E1,4.785645485E0,-9.123832703E0,-5.560919762E0
2.422005708E1,4.995017052E0,-9.754341125E0,-2.730210543E0
2.423886578E1,5.016552448E0,-9.537791252E0,2.943171859E-1
2.425767443E1,2.218146563E0,-7.469195843E0,9.475577474E-1
2.427648307E1,6.999006271E-1,-6.979863644E0,-4.905286431E-1
2.429529177E1,3.266202807E-1,-7.245467186E0,-1.115055323E0
2.431410042E1,2.069791555E-1,-7.329215527E0,-1.010967612E0
2.433290912E1,8.662018180E-1,-7.392625332E0,-2.404786795E-1
2.435171776E1,1.537388563E0,-7.508677483E0,-2.560320199E-1
2.437052646E1,1.975275040E0,-7.331608772E0,-3.421736360E-1
2.438933510E1,2.574677229E0,-8.021938324E0,-1.324427366E0
2.440814380E1,3.513859987E0,-9.773484230E0,-2.664407969E0
2.442695245E1,3.544966698E0,-1.085862923E1,-3.701696634E0
2.444576115E1,3.072384357E0,-1.149392319E1,-3.014956474E0
2.446456979E1,2.786442041E0,-1.262094307E1,-2.640479803E0
2.448337844E1,3.454039574E0,-1.396451283E1,-7.142575383E-1
2.450218714E1,3.639483213E0,-1.398724461E1,5.659025311E-1
2.452099578E1,3.126222849E0,-1.241516018E1,-2.524427772E-1
2.453980448E1,2.264806747E0,-1.134796143E1,-2.030309916E0
2.455861312E1,1.184447169E0,-1.137667561E1,-3.494717360E0
2.457742182E1,1.325623751E0,-1.121276665E1,-4.000799656E0
2.459623047E1,2.618944407E0,-9.718449593E0,-2.867797852E0
2.461503917E1,4.339384079E0,-8.565108299E0,3.661018610E-1
2.463384781E1,5.791827202E0,-9.172885895E0,1.629512191E0
2.465265646E1,5.322834015E0,-1.123549843E1,2.244467735E0
2.467146516E1,3.944568157E0,-1.375274849E1,1.970489502E0
2.469027380E1,2.463410854E0,-1.781576157E1,-3.361915946E-1
2.470908250E1,5.276173949E-1,-2.008296013E1,-8.530412912E-1
2.472789115E1,5.503492057E-2,-1.882194328E1,1.710868180E-1
2.474669979E1,-1.674975827E-2,-1.602832222E1,-2.440679073E-1
2.476550849E1,-9.200403094E-1,-1.205623722E1,-4.307080805E-1
2.478431714E1,-1.812563181E0,-8.063812256E0,4.187439680E-1
2.480312583E1,-1.515853167E0,-5.572884083E0,1.136590719E0
2.482193448E1,-9.535398483E-1,-4.348955154E0,2.189432621E0
2.484074313E1,-1.117448211E0,-3.389433384E0,2.009970903E0
2.485955182E1,-1.379462242E0,-2.779263496E0,1.877169371E0
2.487836047E1,-1.124626637E0,-3.111865759E0,2.283949137E0
2.489716917E1,-9.451649189E-1,-3.791427374E0,3.664607763E0
2.491597781E1,-3.385843933E-1,-4.394418716E0,2.215753794E0
2.493478651E1,-5.383851007E-2,-4.888536453E0,2.025524378E0
2.495359516E1,2.321037948E-1,-4.951946259E0,1.524227977E0
2.497240380E1,9.260223508E-1,-5.377869129E0,-1.546959877E0
2.499121250E1,2.374876499E0,-6.806384087E0,-1.219382381E1
2.501002115E1,3.610769272E0,-1.173320580E1,-2.381217384E1
2.502882979E1,5.807380676E0,-1.449332714E1,-1.675693703E1
2.504763849E1,6.062216282E0,-1.266879940E1,-4.669593334E0
2.506644714E1,3.678964853E0,-9.463613510E0,-4.683950424E0
2.508525578E1,3.706482172E0,-7.854440212E0,-7.362715244E0
2.510406448E1,5.575276852E0,-8.608179092E0,-8.702695847E0
2.512287312E1,5.000999451E0,-1.118883896E1,-6.209374666E-1
2.514168177E1,2.756531715E0,-1.256351566E1,2.218146563E0
2.516049047E1,1.125823021E0,-1.346560955E1,-5.407779217E-1
2.517929912E1,-9.212367237E-2,-1.565145302E1,-7.113861561E0
2.519810776E1,-4.713860750E-1,-1.052243805E1,2.350948334E0
2.521691646E1,6.699903309E-2,-7.008577347E0,3.653840065E0
2.523572510E1,5.431707501E-1,-8.176275253E0,3.000599623E0
2.525453375E1,8.291130662E-1,-1.065763187E1,1.987239242E0
2.527334245E1,1.462014675E0,-1.106680489E1,1.941775560E0
2.529215109E1,2.196611166E0,-1.010488987E1,6.604190469E-1
2.531095979E1,2.760120869E0,-9.245866776E0,3.900300860E-1
2.532976844E1,3.056830883E0,-8.968298912E0,8.638089895E-1
2.534857708E1,3.037688255E0,-8.563912392E0,2.536391914E-1
2.536738573E1,2.587837696E0,-7.957331657E0,-7.310073376E-1
2.538619443E1,2.197807550E0,-7.308876991E0,-2.051845312E0
2.540500307E1,1.957328916E0,-7.180860519E0,-2.839084148E0
2.542381172E1,1.886740685E0,-6.861418724E0,-2.232503414E0
2.544262042E1,2.054238319E0,-6.534798622E0,-1.759921074E0
2.546142906E1,2.102094650E0,-6.014359951E0,-1.459621787E-1
2.548023771E1,1.797009826E0,-6.687939167E0,1.830509305E-1
2.549904641E1,2.367697954E0,-7.989634991E0,-9.212367237E-2
2.551785505E1,3.379862070E0,-9.394221306E0,-6.149554253E-1
2.553666370E1,4.655236244E0,-1.105723381E1,-1.016949654E0
2.555547234E1,5.505885124E0,-1.284108257E1,-1.762313843E0
2.557428104E1,5.045266628E0,-1.403988647E1,-2.287538528E0
2.559308969E1,3.888336897E0,-1.366541004E1,-1.828116536E0
2.561189833E1,3.215953588E0,-1.260299683E1,-1.655833244E0
2.563070703E1,2.811566591E0,-1.220459175E1,-2.478964329E0
2.564951568E1,2.663211584E0,-1.166501045E1,-3.363112211E0
2.566832432E1,3.255435228E0,-1.159202957E1,-3.677768469E0
2.568713297E1,3.433700562E0,-1.177747345E1,-3.821337700E0
2.570594167E1,1.282552958E0,-1.213639641E1,-1.184447169E0
2.572475031E1,-2.907279432E-1,-1.195454216E1,2.189432681E-1
2.574355896E1,7.178468108E-1,-1.205145168E1,7.118647099E-1
2.576236760E1,3.457628787E-1,-1.128814125E1,1.050449133E0
2.578117630E1,-1.506281853E0,-1.172004509E1,4.127618968E-1
2.579998495E1,-2.251646042E0,-1.329452229E1,-1.019342422E0
2.581879359E1,-2.025524378E0,-1.380539036E1,-8.757730722E-1
2.583760229E1,-5.539384484E-1,-1.300977707E1,9.643075466E-1
2.585641094E1,1.459621787E-1,-1.114816093E1,2.931207657E0
2.587521958E1,-6.221338734E-2,-8.944371223E0,3.200400352E0
2.589402823E1,5.862415582E-2,-7.365108013E0,1.947757602E0
2.591283693E1,3.948157430E-1,-6.296712875E0,5.802595019E-1
2.593164557E1,1.170090318E0,-5.776273727E0,5.216353536E-1
2.595045422E1,2.439482689E0,-5.235496044E0,-4.462614357E-1
2.596926286E1,3.047259569E0,-4.284348965E0,-1.566102386E0
2.598807151E1,1.499103427E0,-4.168296814E0,-6.604190469E-1
2.600688021E1,-4.570291340E-1,-4.721039295E0,2.081755698E-1
2.602568885E1,-9.451649189E-1,-4.610969067E0,-6.245267391E-1
2.604449750E1,-3.349951655E-2,-4.527220249E0,-9.655039310E-1
2.606330615E1,1.499103427E0,-4.646861553E0,-2.981456995E0
2.608211484E1,4.814359188E0,-6.756134510E0,-7.000202656E0
2.610092349E1,1.096989536E1,-1.087418270E1,-9.413364410E0
2.611973214E1,1.069830990E1,-1.297029495E1,-3.462414265E0
2.613854078E1,9.282955170E0,-1.342014599E1,-7.678567886E0
2.615734943E1,6.876972198E0,-1.306002617E1,-7.355536938E0
2.617615812E1,4.421936035E0,-1.051765156E1,-5.389832973E0
2.619496677E1,5.150550842E0,-7.886743546E0,-3.999603033E0
2.621377542E1,4.529613495E0,-8.348558426E0,-6.963114142E-1
2.623258406E1,1.328016520E0,-9.616754532E0,1.495514154E0
2.625139271E1,-5.180460811E-1,-1.122473145E1,2.751746029E-2
2.627020141E1,-9.200403094E-1,-1.507956791E1,-8.805587769E0
2.628901005E1,-4.546363056E-1,-1.351466274E1,1.776670814E0
2.630781870E1,-8.398807645E-1,-9.708877563E0,3.527020693E0
2.632662734E1,-7.728816867E-1,-9.256634712E0,3.078366280E0
2.634543599E1,4.737788737E-1,-1.097468090E1,2.857030153E0
2.636424469E1,1.268195987E0,-1.158126163E1,2.245664120E0
2.638305333E1,1.591227055E0,-1.029392338E1,1.678565025E0
2.640186198E1,1.555334687E0,-9.099904060E0,1.339980721E0
2.642067063E1,1.141376376E0,-8.170292854E0,-1.313659668E0
2.643947927E1,9.954141974E-1,-7.775477409E0,-3.351148129E0
2.645828792E1,1.507478237E0,-8.291130066E0,-1.239482164E0
2.647709662E1,1.202393413E0,-7.810173035E0,-5.623133108E-2
2.649590526E1,7.657032460E-2,-6.721438885E0,3.409772217E-1
2.651471391E1,-3.002992272E-1,-7.335197926E0,-1.710868239E0
2.653352255E1,9.212367237E-2,-8.538787842E0,-3.412165165E0
2.655233120E1,8.685946465E-1,-9.183652878E0,-2.858226538E0
2.657113984E1,2.243271112E0,-9.095118523E0,-8.267202377E-1
2.658994849E1,3.369094372E0,-9.095118523E0,8.087740541E-1
2.660875719E1,3.682554007E0,-8.778069496E0,1.211964726E0
2.662756583E1,3.578466177E0,-9.040083885E0,5.264210105E-1
2.664637448E1,2.962314367E0,-1.013001442E1,-6.759724021E-1
2.666518313E1,1.911865234E0,-1.140778160E1,-1.878365755E0
2.668399177E1,1.148554921E0,-1.248455238E1,-1.939382792E0
2.670280042E1,1.484746456E0,-1.286261845E1,-1.783849239E0
2.672160906E1,1.707278967E0,-1.203589821E1,-2.115255117E0
2.674041776E1,2.061416626E0,-1.164586735E1,-2.175075769E0
2.675922641E1,3.084348440E0,-1.248455238E1,-1.987239242E0
2.677803505E1,3.635894060E0,-1.253480148E1,-2.690729141E0
2.679684370E1,2.835494757E0,-1.025563812E1,-2.453839540E0
2.681565234E1,2.699103832E0,-8.172685623E0,-2.500499725E0
2.683446099E1,3.022135019E0,-8.222934723E0,-3.248256683E0
2.685326964E1,3.775874138E0,-1.060140038E1,2.809173822E0
2.687207828E1,1.755135417E0,-1.347039509E1,2.313859463E0
2.689088698E1,1.278963685E0,-1.730848312E1,-2.835494876E-1
2.690969562E1,6.891329288E-1,-2.059502411E1,-2.405983210E0
2.692850427E1,-7.238288522E-1,-1.889133453E1,-3.720839322E-1
2.694731292E1,-1.508674622E0,-1.507956791E1,2.069791555E-1
2.696612156E1,-1.676172256E0,-1.116610718E1,-7.537391037E-2
2.698493021E1,-1.585245013E0,-7.702496052E0,-4.893322289E-1
2.700373885E1,-1.038485050E0,-5.434100151E0,-4.510470629E-1
2.702254750E1,-8.374879509E-2,-4.200600147E0,6.939185858E-1
2.704135615E1,3.493520916E-1,-3.589233875E0,1.350748420E0
2.706016479E1,-2.620140910E-1,-3.578466177E0,2.128415823E0
2.707897344E1,-5.886343718E-1,-3.851248026E0,2.334198475E0
2.709778214E1,-9.451649189E-1,-4.281956196E0,2.038684845E0
2.711659078E1,-9.714859724E-1,-4.784449100E0,1.597209096E0
2.713539943E1,-9.451649189E-1,-5.564508915E0,8.506484628E-1
2.715420807E1,-9.104689956E-1,-6.287141323E0,-1.789831281E0
2.717301672E1,1.806581169E-1,-6.273981094E0,-6.817151546E0
2.719182537E1,2.271985054E0,-6.547959328E0,-1.143888855E1
2.721063401E1,6.530013084E0,-9.801001549E0,-1.825484467E1
2.722944266E1,8.566305161E0,-1.207418346E1,-1.194616699E1
2.724825130E1,8.027919769E0,-1.233978653E1,-5.931807518E0
2.726705995E1,6.823133945E0,-1.187318611E1,-7.743174076E0
2.728586859E1,3.578466177E0,-9.154939651E0,-8.403593063E0
2.730467724E1,2.233700037E0,-6.138786316E0,-7.895118237E0
2.732348589E1,-6.340979785E-2,-7.204789162E0,3.401397467E0
2.734229453E1,-1.861616015E0,-9.678967476E0,3.931407690E0
2.736110318E1,-8.961120844E-1,-1.319521999E1,1.131805062E0
2.737991182E1,-1.447657645E-1,-1.799163437E1,-1.010608673E1
2.739872047E1,-3.481557071E-1,-1.653201103E1,3.589233875E0
2.741752912E1,-2.620140910E-1,-1.196291637E1,6.082555294E0
2.743633776E1,6.675975323E-1,-9.431310654E0,5.180460930E0
2.745514641E1,1.209571838E0,-8.565108299E0,3.304488182E0
2.747395505E1,1.883151412E0,-8.863015175E0,2.154736757E0
2.749276370E1,2.532802820E0,-8.950352669E0,1.194018483E0
2.751157234E1,2.702693224E0,-8.551948547E0,-2.210968018E0
2.753038099E1,2.500499725E0,-8.500502586E0,-5.270191669E0
2.754918964E1,2.835494757E0,-9.141778946E0,-3.952943087E0
2.756799828E1,2.206182480E0,-8.237292290E0,-1.866401672E0
2.758680693E1,6.065805554E-1,-7.073183537E0,-5.670989752E-1
2.760561557E1,6.269195080E-1,-7.692924976E0,-8.554341197E-1
2.762442422E1,1.040877819E0,-8.230113029E0,-1.512263894E0
2.764323286E1,1.685743570E0,-7.767102242E0,-1.442872047E0
2.766204151E1,2.492124796E0,-7.867600918E0,-1.268195987E0
2.768085016E1,3.322434187E0,-8.354539871E0,-8.458628058E-1
2.769965880E1,3.632304668E0,-8.304290771E0,-3.565305769E-1
2.771846745E1,3.546163082E0,-8.181060791E0,-4.630111754E-1
2.773727609E1,3.556930780E0,-9.324830055E0,-1.692921996E0
2.775608474E1,3.686143398E0,-1.163270760E1,-2.242074728E0
2.777489339E1,3.347558975E0,-1.287218952E1,-2.202593327E0
2.779370203E1,3.290131092E0,-1.325982666E1,-2.114058733E0
2.781251068E1,3.105883837E0,-1.271067429E1,-1.343569875E0
2.783131932E1,2.851048231E0,-1.254796219E1,-1.158126116E0
2.785012797E1,3.438486099E0,-1.373480225E1,-1.619940877E0
2.786893662E1,3.649054527E0,-1.340578842E1,-1.639083505E0
2.788774526E1,3.556930780E0,-1.121515942E1,-2.172683001E0
2.790655391E1,3.836891174E0,-9.146564484E0,-2.476571321E0
2.792536255E1,3.025724173E0,-8.451449394E0,-3.103491068E0
2.794417120E1,2.616551638E0,-1.033699417E1,2.754138947E0
2.796297984E1,1.129412293E0,-1.292124271E1,2.014756680E0
2.798178849E1,6.699903607E-1,-1.589193153E1,1.209571838E0
2.800059714E1,9.511470199E-1,-1.874656868E1,-1.771885157E0
2.801940578E1,-4.869394004E-1,-1.709432411E1,-1.180858016E0
2.803821438E1,-1.500299811E0,-1.310070419E1,-2.871387079E-2
2.805702302E1,-1.491924882E0,-1.009292603E1,7.250252366E-1
2.807583167E1,-5.659025311E-1,-7.445267677E0,-6.544370055E-1
2.809464031E1,4.594219327E-1,-5.661418438E0,-1.805384636E0
2.811344896E1,1.019342422E0,-4.587040901E0,3.481557071E-1
2.813225760E1,1.007378340E0,-4.110869408E0,1.897508383E0
2.815106625E1,-8.015955985E-2,-3.693321705E0,1.604387641E0
2.816987490E1,-8.662018180E-1,-3.298506021E0,2.371287346E0
2.818868354E1,-9.200403094E-1,-3.503092289E0,3.218346357E0
2.820749219E1,-1.138983607E0,-4.193421841E0,3.349951744E0
2.822630083E1,-1.058824062E0,-4.914857864E0,2.358126640E0
2.824510948E1,-5.766702294E-1,-5.418546677E0,8.542376757E-1
2.826391807E1,3.996013701E-1,-6.282355785E0,-1.167697430E1
2.828272672E1,3.797409534E0,-1.080598736E1,-2.805584526E1
2.830153537E1,6.652047157E0,-1.437368584E1,-1.914736748E1
2.832034401E1,6.549155712E0,-1.305763340E1,-1.272981644E0
2.833915266E1,6.650850773E0,-1.167218876E1,-4.060619831E0
2.835796130E1,5.684150219E0,-8.803194046E0,-7.844869137E0
2.837676995E1,5.594419479E0,-5.928217888E0,-1.026520920E1
2.839557854E1,2.489732027E0,-8.146365166E0,2.043470621E0
2.841438719E1,-9.535398483E-1,-1.091366386E1,3.955335855E0
2.843319583E1,-7.238288522E-1,-1.383530045E1,1.097109199E0
2.845200448E1,-6.257231236E-1,-1.677727509E1,-7.142575741E0
2.847081313E1,-3.194418252E-1,-1.398006630E1,1.869990945E0
2.848962177E1,-3.385843933E-1,-1.019820976E1,3.730410576E0
2.850843042E1,4.677968323E-1,-8.675178528E0,4.005585194E0
2.852723901E1,1.088734269E0,-9.249456406E0,3.419343472E0
2.854604766E1,1.450050473E0,-1.011565781E1,2.701496840E0
2.856485630E1,2.504088879E0,-1.017428207E1,1.984846354E0
2.858366495E1,3.007778168E0,-9.961320877E0,1.667797327E0
2.860247359E1,2.964707375E0,-9.499505997E0,8.362914920E-1
2.862128224E1,2.794816732E0,-8.578269005E0,-4.037888050E0
2.864009083E1,2.542374134E0,-7.917850018E0,-6.897311211E0
2.865889948E1,2.435893536E0,-7.899903774E0,-4.159922123E0
2.867770813E1,9.822536707E-1,-7.588837147E0,-8.171489239E-1
2.869651677E1,2.691925466E-1,-7.434499741E0,-1.902294010E-1
2.871532542E1,6.388836503E-1,-7.371089935E0,2.392822644E-3
2.873413406E1,1.525424480E0,-7.334001541E0,4.462614357E-1
2.875294266E1,2.110469580E0,-7.408178806E0,7.250252366E-1
2.877175130E1,2.630908489E0,-8.117650986E0,-5.383851007E-2
2.879055995E1,2.617748022E0,-8.823533058E0,-2.080559254E0
2.880936859E1,2.955136061E0,-9.744770050E0,-3.139383316E0
2.882817724E1,3.376272678E0,-1.192582798E1,-3.641875982E0
2.884698583E1,2.833101988E0,-1.364148235E1,-3.018545866E0
2.886579448E1,2.660818815E0,-1.303729439E1,-2.070987940E0
2.888460312E1,3.594019651E0,-1.234337521E1,-3.924229145E-1
2.890341177E1,3.656233072E0,-1.183131123E1,1.782652885E-1
2.892222042E1,3.558127165E0,-1.268435287E1,-1.460818172E0
2.894102901E1,4.199403763E0,-1.418943787E1,-3.122633457E0
2.895983766E1,4.376472473E0,-1.228235817E1,-3.194418192E0
2.897864630E1,4.444668293E0,-9.462417603E0,-3.053241730E0
2.899745495E1,5.816951752E0,-8.602197647E0,-1.631905079E0
2.901626359E1,4.594219685E0,-9.979267120E0,2.457428932E0
2.903507219E1,2.848655462E0,-1.212562847E1,1.999203324E0
2.905388083E1,1.592423439E0,-1.515733528E1,7.657032609E-1
2.907268948E1,5.204389095E-1,-1.785763550E1,1.371087432E0
2.909149812E1,5.647061467E-1,-1.949911118E1,1.451246977E0
2.911030672E1,9.451649338E-2,-1.796890259E1,-6.017948985E-1
2.912911536E1,-1.289731383E0,-1.333161163E1,8.973085135E-2
2.914792401E1,-1.312463164E0,-9.279366493E0,8.889335990E-1
2.916673266E1,-9.439685345E-1,-6.494120598E0,6.245267391E-1
2.918554125E1,-1.674975902E-1,-4.527220249E0,1.782652885E-1
2.920434990E1,1.004985452E0,-3.500699520E0,-9.655039310E-1
2.922315854E1,7.824530005E-1,-2.975475073E0,7.860422134E-1
2.924196714E1,1.292124242E-1,-2.700300455E0,2.605783939E0
2.926077578E1,-4.785645287E-3,-2.882154942E0,3.669393539E0
2.927958443E1,-3.074777126E-1,-3.464807272E0,3.698107481E0
2.929839307E1,-7.106683254E-1,-4.663611412E0,2.450250387E0
2.931720172E1,-6.508477330E-1,-5.613562107E0,1.378265858E0
2.933601031E1,-4.725824594E-1,-6.470192432E0,-8.039883971E-1
2.935481896E1,-1.192822099E0,-7.797012806E0,-1.362832165E1
2.937362755E1,1.531406492E-1,-1.094596672E1,-2.391267395E1
2.939243620E1,3.317648649E0,-1.320120239E1,-1.610369682E1
2.941124484E1,5.468796253E0,-1.239482117E1,-3.041277647E0
2.943005349E1,7.320840836E0,-1.071984577E1,-4.137190342E0
2.944886208E1,7.671389580E0,-8.212167740E0,-8.478966713E0
2.946767073E1,8.295916557E0,-5.528616905E0,-1.043031406E1
2.948647938E1,5.081159115E0,-4.415954113E0,-1.277767301E0
2.950528797E1,6.472585201E-1,-7.590033531E0,5.018945694E0
2.952409662E1,-5.694918036E-1,-1.152503014E1,3.073580742E0
2.954290526E1,6.149554253E-1,-1.588594913E1,-8.494520187E-2
2.956171385E1,5.587241054E-1,-1.943929100E1,-2.348555326E0
2.958052250E1,-1.483550072E-1,-1.808973885E1,-1.524227977E0
2.959933115E1,-8.757730722E-1,-1.252044487E1,1.253839016E0
2.961813974E1,-5.503492057E-2,-8.624929428E0,4.695914268E0
2.963694839E1,1.277767301E0,-7.015756130E0,4.804787636E0
2.965575703E1,1.350748420E0,-6.976274490E0,3.494717360E0
2.967456563E1,1.195214868E0,-7.587640762E0,2.408375978E0
2.969337427E1,1.447657704E0,-8.208578110E0,1.207179070E0
2.971218292E1,1.716850281E0,-8.774480820E0,1.244267747E-1
2.973099151E1,1.835294962E0,-8.472985268E0,-3.452843189E0
2.974980016E1,1.684547186E0,-7.633104324E0,-6.966702938E0
2.976860880E1,2.128415823E0,-7.640282631E0,-6.051448345E0
2.978741740E1,2.459821701E0,-8.601000786E0,-2.737389088E0
2.980622604E1,2.132004976E0,-8.348558426E0,-1.459621787E-1
2.982503469E1,2.178664923E0,-7.336394310E0,1.787438512E0
2.984384328E1,2.364108801E0,-6.959524632E0,2.420340061E0
2.986265193E1,3.305684566E0,-7.947760582E0,1.741974831E0
2.988146057E1,3.403790236E0,-9.218349457E0,-7.561319470E-1
2.990026917E1,3.397808075E0,-1.046979523E1,-2.825923443E0
2.991907781E1,4.599005222E0,-1.287099266E1,-6.193821430E0
2.993788646E1,5.967699528E0,-1.414277840E1,-6.236892223E0
2.995669505E1,5.176871777E0,-1.300020504E1,-1.802991867E0
2.997550370E1,4.834698200E0,-1.244267750E1,4.713860750E-1
2.999431229E1,4.051048756E0,-1.246182060E1,5.144568533E-2
3.001312094E1,3.497110367E0,-1.330648708E1,-1.878365755E0
3.003192953E1,3.737588882E0,-1.393938828E1,-3.785445452E0
3.005073818E1,3.561716557E0,-1.133839035E1,-3.790230989E0
3.006954682E1,2.565105915E0,-7.971688747E0,-3.172882795E0
3.008835542E1,2.870190859E0,-7.040880680E0,-1.276570916E0
3.010716406E1,4.370490551E0,-8.981459618E0,2.778067112E0
3.012597271E1,3.844069481E0,-1.226321602E1,2.248056889E0
3.014478130E1,1.950150490E0,-1.583091450E1,1.347159147E0
3.016358995E1,7.728816867E-1,-1.871785545E1,1.202393413E0
3.018239854E1,9.547362328E-1,-1.987957001E1,1.379462242E0
3.020120719E1,7.585247755E-1,-1.765544128E1,-1.432104349E0
3.022001583E1,-2.368894368E-1,-1.258983612E1,-2.566302299E0
3.023882443E1,-5.946164131E-1,-8.299505234E0,-1.995614052E0
3.025763307E1,-5.180460811E-1,-5.270191669E0,-2.493321180E0
3.027644167E1,-2.608176768E-1,-3.754338741E0,-4.307080805E-2
3.029525031E1,-2.991028316E-2,-2.871387243E0,2.592623234E0
3.031405891E1,-1.040877849E-1,-2.061416626E0,3.044866800E0
3.033286755E1,1.435693540E-2,-1.734796405E0,3.079562664E0
3.035167620E1,2.297109663E-1,-1.995614052E0,4.130012035E0
3.037048479E1,-1.722832322E-1,-2.731407166E0,3.611965895E0
3.038929344E1,-6.209374666E-1,-3.853640795E0,2.609373093E0
3.040810203E1,-3.840480447E-1,-4.906482697E0,1.770688772E0
3.042691068E1,1.710868180E-1,-6.028716564E0,1.002592683E0
3.044571927E1,2.118844509E0,-9.591629982E0,-2.168495560E1
3.046452792E1,4.701896667E0,-1.627478409E1,-3.620699692E1
3.048333651E1,4.155136585E0,-1.591346741E1,-5.818148136E0
3.050214516E1,5.410171986E0,-1.373001671E1,1.590030670E0
3.052095375E1,7.113861561E0,-1.133839035E1,-9.658628464E0
3.053976240E1,6.224927902E0,-7.741977692E0,-1.111944675E1
3.055857099E1,3.141776085E0,-8.736195564E0,-7.190431952E-1
3.057737964E1,3.613162339E-1,-1.060857964E1,4.216153622E0
3.059618828E1,-4.701896608E-1,-1.210887909E1,1.712064624E0
3.061499688E1,1.076770201E-2,-1.327657604E1,-3.517449200E-1
3.063380552E1,-9.571290575E-3,-1.272144127E1,-1.119840980E0
3.065261412E1,9.571290761E-2,-1.089452171E1,4.091726840E-1
3.067142276E1,-4.666004330E-2,-9.856036186E0,1.923829436E0
3.069023135E1,6.029912829E-1,-9.537791252E0,3.726821184E0
3.070904000E1,1.508674622E0,-9.495916367E0,4.648057938E0
3.072784859E1,2.426322222E0,-9.645467758E0,2.981456995E0
3.074665724E1,2.729014158E0,-9.519845009E0,1.703689694E0
3.076546583E1,2.825923443E0,-8.852247238E0,1.220339537E0
3.078427448E1,3.019742250E0,-8.352147102E0,1.322034478E0
3.080308307E1,2.703889608E0,-7.271788120E0,-2.851048231E0
3.082189172E1,1.904686809E0,-6.362515450E0,-8.951549530E0
3.084070031E1,1.488335729E0,-7.180860519E0,-8.718249321E0
3.085950896E1,1.887937069E0,-8.536395073E0,-3.145365477E0
3.087831755E1,1.392622828E0,-8.457431793E0,-5.168496966E-1
3.089712620E1,1.797009826E0,-8.256434441E0,1.188036442E0
3.091593479E1,2.829512835E0,-8.657232285E0,1.844866276E0
3.093474344E1,3.871587038E0,-8.810373306E0,7.525427341E-1
3.095355203E1,4.319045067E0,-8.739784241E0,-2.152343988E0
3.097236068E1,5.081159115E0,-1.025204849E1,-5.088337421E0
3.099116927E1,4.551148891E0,-1.328973675E1,-5.296513081E0
3.100997787E1,2.971885681E0,-1.451127338E1,-3.136990547E0
3.102878651E1,2.258824587E0,-1.337109280E1,-2.626122952E0
3.104759510E1,3.391826153E0,-1.181456184E1,-2.033899307E0
3.106640375E1,4.778466702E0,-1.179541969E1,-9.320043921E-1
3.108521234E1,5.839683533E0,-1.267597771E1,-2.739781857E0
3.110402099E1,5.357530117E0,-1.118524933E1,-5.117051125E0
3.112282958E1,3.827319860E0,-8.623732567E0,-2.858226538E0
3.114163823E1,4.066602230E0,-8.854640007E0,1.234696507E0
3.116044682E1,4.526023865E0,-1.099262714E1,3.075973511E0
3.117925547E1,2.456232548E0,-1.383051491E1,1.887937069E0
3.119806406E1,8.578268886E-1,-1.742573166E1,1.500299811E0
3.121687266E1,6.903293133E-1,-1.999921227E1,1.927418590E0
3.123568130E1,8.303094506E-1,-2.019183350E1,-2.392822690E-2
3.125448990E1,-4.283152521E-1,-1.581536102E1,-2.658426046E0
3.127329854E1,-1.417747378E0,-1.045304585E1,-1.841277003E0
3.129210714E1,-1.405783296E0,-6.937989235E0,-9.367900491E-1
3.131091578E1,-9.248259664E-1,-4.707878590E0,-9.894321561E-1
3.132972438E1,-2.333002090E-1,-3.371487141E0,-2.751746029E-2
3.134853297E1,-3.098705411E-1,-2.324627161E0,1.992024899E0
3.136734162E1,-4.235295951E-1,-1.737189293E0,3.211168051E0
3.138615021E1,-3.290131092E-1,-1.336391449E0,3.470789194E0
3.140495885E1,-4.163511395E-1,-1.701296926E0,3.558127165E0
3.142376745E1,-2.679961324E-1,-3.139383316E0,2.997010469E0
3.144257609E1,1.950150430E-1,-4.875376225E0,3.517449379E0
3.146138469E1,2.309073806E-1,-5.871986866E0,1.847259045E0
3.148019328E1,3.038884699E-1,-6.878168583E0,2.859423161E-1
3.149900193E1,1.278963685E0,-1.191266727E1,-3.116531944E1
3.151781052E1,3.445664644E0,-1.614198112E1,-2.782254601E1
3.153661912E1,3.519842148E0,-1.282313633E1,-2.632105052E-1
3.155542776E1,5.681757450E0,-1.031306553E1,3.291327477E0
3.157423635E1,8.612964630E0,-9.148957253E0,-9.419346809E0
3.159304500E1,9.634700775E0,-6.796812534E0,-1.413560009E1
3.161185359E1,4.390829563E0,-6.720242500E0,1.678565025E0
3.163066219E1,1.354337573E0,-9.531808853E0,5.108676434E0
3.164947083E1,2.751746029E-2,-1.248933792E1,3.066402197E0
3.166827943E1,1.016949654E0,-1.684786415E1,-2.572284341E-1
3.168708802E1,9.583254457E-1,-1.994656944E1,-1.467996716E0
3.170589667E1,-8.374879137E-3,-1.644347763E1,-6.496513486E-1
3.172470526E1,-9.451649338E-2,-1.096989536E1,1.499103427E0
3.174351385E1,1.042074203E0,-7.789834023E0,4.083351612E0
3.176232250E1,6.005984545E-1,-6.503692150E0,5.113461971E0
3.178113109E1,7.680960894E-1,-6.984649181E0,3.670589924E0
3.179993969E1,1.275374413E0,-7.801798344E0,2.410768747E0
3.181874833E1,1.703689694E0,-8.260024071E0,1.433300734E0
3.183755693E1,2.315055847E0,-8.373682976E0,1.350748420E0
3.185636557E1,1.757528186E0,-7.971688747E0,1.256231815E-1
3.187517417E1,9.403793216E-1,-6.630511761E0,-5.285745144E0
3.189398276E1,6.305087805E-1,-6.270391941E0,-8.617751122E0
3.191279141E1,1.710868239E0,-7.709674358E0,-5.357530117E0
3.193160000E1,2.226521492E0,-8.939585686E0,-1.739582062E0
3.195040859E1,2.117648125E0,-8.323433876E0,5.467599630E-1
3.196921724E1,2.335394859E0,-8.202595711E0,9.762716293E-1
3.198802583E1,2.858226538E0,-8.941978455E0,-6.723831892E-1
3.200683443E1,3.567698479E0,-9.882357597E0,-3.836891174E0
3.202564302E1,4.786841869E0,-1.194377422E1,-4.264009953E0
3.204445167E1,5.842076302E0,-1.435214996E1,-3.664607763E0
3.206326026E1,5.002195835E0,-1.395135212E1,-1.030110121E0
3.208206885E1,4.352544308E0,-1.206102276E1,3.206382394E-1
3.210087750E1,4.106083870E0,-1.138863945E1,-1.093519926E0
3.211968609E1,3.869194269E0,-1.202752304E1,-3.553341627E0
3.213849469E1,4.191029072E0,-1.296431351E1,-4.997410297E0
3.215730333E1,4.486542225E0,-1.129771233E1,-3.586841106E0
3.217611193E1,3.913461447E0,-8.506484032E0,-3.852444589E-1
3.219492052E1,4.612165451E0,-7.679764271E0,2.132004976E0
3.221372912E1,5.306084156E0,-9.144171715E0,2.490928411E0
3.223253776E1,4.548755646E0,-1.238525009E1,1.540977836E0
3.225134635E1,2.327019930E0,-1.622692680E1,6.532405615E-1
3.227015495E1,8.147560954E-1,-1.915693855E1,1.131805062E0
3.228896359E1,9.523434043E-1,-2.068236160E1,-5.431707501E-1
3.230777219E1,2.488535494E-1,-1.685264969E1,-3.225524902E0
3.232658078E1,-6.460621357E-1,-1.113978577E1,-2.184647083E0
3.234538938E1,-9.320043921E-1,-7.293323517E0,-1.135394335E0
3.236419802E1,-4.426721931E-1,-4.943571568E0,-1.312463164E0
3.238300662E1,-1.722832322E-1,-3.759124279E0,-4.558327198E-1
3.240181521E1,-2.799602449E-1,-3.184846878E0,2.337787628E0
3.242062380E1,-2.033899277E-1,-2.737389088E0,3.900300980E0
3.243943245E1,5.503492057E-2,-2.176272154E0,3.780659676E0
3.245824104E1,-2.991028316E-2,-1.695314884E0,3.540181160E0
3.247704964E1,-4.139583111E-1,-1.965703845E0,3.144168854E0
3.249585823E1,-6.628118753E-1,-2.758924484E0,2.749353170E0
3.251466688E1,-7.537391037E-2,-3.696911097E0,2.091326952E0
3.253347547E1,3.278166950E-1,-4.517649174E0,1.316052437E0
3.255228406E1,2.464607358E-1,-6.551548481E0,-2.724228621E0
3.257109266E1,4.486542344E-1,-1.173440266E1,-2.931207657E1
3.258990130E1,3.550948858E0,-1.718166351E1,-2.982533836E1
3.260870990E1,5.023731232E0,-1.644706726E1,-4.248456478E0
3.262751849E1,7.655836105E0,-1.417268848E1,-5.410171986E0
3.264632708E1,8.288737297E0,-9.622735977E0,-1.009651470E1
3.266513568E1,6.738188744E0,-4.548755646E0,-1.147717381E1
3.268394432E1,2.629712105E0,-4.466203690E0,2.587837696E0
3.270275292E1,-3.397808075E-1,-8.246863365E0,6.333801746E0
3.272156151E1,-5.204389095E-1,-1.214477158E1,3.466003656E0
3.274037010E1,7.956135273E-1,-1.773919106E1,7.992027402E-1
3.275917875E1,1.458425403E0,-2.128176498E1,-2.751746178E-1
3.277798734E1,2.907279432E-1,-1.659901047E1,2.313859463E0
3.279679594E1,5.084748268E-1,-1.061934662E1,6.005984783E0
3.281560453E1,8.470591903E-1,-7.459624767E0,7.276573658E0
3.283441313E1,1.025324464E0,-7.089933395E0,4.655236244E0
3.285322177E1,1.470389485E0,-7.990831375E0,1.880758643E0
3.287203036E1,2.072184324E0,-8.001599312E0,1.533799291E0
3.289083896E1,2.498106956E0,-7.842476368E0,1.657029629E0
3.290964755E1,2.266003132E0,-7.636693478E0,-3.505485058E-1
3.292845615E1,1.226321578E0,-6.831508636E0,-7.926225185E0
3.294726474E1,7.621139884E-1,-7.551748276E0,-7.657032490E0
3.296607333E1,1.389033556E0,-9.032905579E0,-3.024527788E0
3.298488198E1,2.413161755E0,-8.701499939E0,1.627119333E-1
3.300369057E1,2.694318295E0,-7.996813297E0,1.521835208E0
3.302249917E1,2.831905603E0,-7.982456207E0,2.051845312E0
3.304130776E1,3.123830080E0,-9.568898201E0,-1.529013634E0
3.306011635E1,4.094119549E0,-1.216511059E1,-6.278766632E0
3.307892495E1,5.318048477E0,-1.449930859E1,-7.030112743E0
3.309773359E1,4.777270317E0,-1.437847137E1,-3.233899832E0
3.311654219E1,4.723432064E0,-1.334955788E1,2.117647976E-1
3.313535078E1,5.126622677E0,-1.241755295E1,1.089930773E0
3.315415938E1,5.144568920E0,-1.243430328E1,-1.214357495E0
3.317296797E1,4.911268711E0,-1.219262791E1,-4.383651257E0
3.319177656E1,4.443471432E0,-1.060618591E1,-4.291527271E0
3.321058516E1,3.503092289E0,-8.574680328E0,-1.733600020E0
3.322939375E1,2.882154942E0,-8.012366295E0,1.003789067E0
3.324820240E1,2.849851847E0,-9.451649666E0,1.397408366E0
3.326701099E1,2.787638426E0,-1.249532032E1,6.412764788E-1
3.328581958E1,1.755135417E0,-1.647937012E1,5.383850932E-1
3.330462818E1,1.022931695E0,-1.986760712E1,1.794616938E0
3.332343677E1,8.518448472E-1,-2.172563362E1,8.530412912E-1
3.334224537E1,-2.703889608E-1,-1.874537277E1,-2.721835852E0
3.336105396E1,-1.531406522E0,-1.295713425E1,-2.612962246E0
3.337986255E1,-1.496710539E0,-8.250452042E0,-2.833101988E0
3.339867120E1,-6.711867452E-1,-5.570491314E0,-2.993421078E0
3.341747979E1,-4.366901219E-1,-3.956532240E0,-2.201396823E-1
3.343628839E1,-9.487541914E-1,-2.635694027E0,1.405783296E0
3.345509698E1,-7.788637877E-1,-1.826920033E0,2.740978241E0
3.347390557E1,-7.058826834E-2,-1.622333765E0,2.949153900E0
3.349271417E1,2.488535494E-1,-2.100898266E0,5.630311489E0
3.351152276E1,6.113662124E-1,-2.742174864E0,8.553144455E0
3.353033135E1,5.814558864E-1,-3.470789194E0,5.930611134E0
3.354913995E1,6.400800347E-1,-3.717249870E0,3.110669374E0
3.356794854E1,5.611169338E-1,-4.202992916E0,1.295713425E0
3.358675714E1,1.543370634E-1,-5.696114540E0,5.886343718E-1
3.360556573E1,6.751348972E0,-1.544327736E1,-6.179464340E1
3.362437432E1,3.804588079E0,-1.667438507E1,-1.374317646E1
3.364318292E1,4.610969067E0,-1.376351547E1,2.408375978E0
3.366199156E1,4.849055290E0,-9.905089378E0,-8.405985832E0
3.368080016E1,3.473181963E0,-6.605386734E0,-1.318804169E1
3.369960875E1,3.608376503E0,-7.153343201E0,-5.984449387E0
3.371841734E1,1.733600020E0,-9.237491608E0,3.672982693E0
3.373722594E1,-1.268195957E-1,-1.169133186E1,2.581855536E0
3.375603453E1,2.620140910E-1,-1.433779335E1,6.783652306E-1
3.377484313E1,8.673982024E-1,-1.487857151E1,-1.806581169E-1
3.379365172E1,1.217946768E0,-1.309472179E1,9.080761671E-1
3.381246031E1,1.323230863E0,-1.153460121E1,2.688336134E0
3.383126891E1,2.249253273E0,-1.093998528E1,4.882554531E0
3.385007750E1,2.847458839E0,-9.966106415E0,5.582455158E0
3.386888609E1,2.847458839E0,-8.892925262E0,5.149354458E0
3.388769469E1,3.165704250E0,-8.548358917E0,3.806980848E0
3.390650328E1,3.320041418E0,-8.640482903E0,2.405983210E0
3.392531188E1,2.883351326E0,-8.379665375E0,1.414158225E0
3.394412047E1,1.883151412E0,-7.194021225E0,-7.299305439E0
3.396292906E1,8.219345808E-1,-6.888936520E0,-1.406501102E1
3.398173766E1,1.271785259E0,-8.025527000E0,-7.945367813E0
3.400054625E1,5.371887088E-1,-8.013563156E0,-2.404786825E0
3.401935484E1,3.038884699E-1,-7.567301750E0,1.400997639E0
3.403816344E1,1.284945726E0,-7.030112743E0,3.364308596E0
3.405697203E1,2.167897224E0,-6.812366009E0,3.416950703E0
3.407578062E1,2.209771633E0,-7.402196884E0,2.103291035E0
3.409458922E1,2.260020971E0,-9.213563919E0,-1.782652855E0
3.411339781E1,2.831905603E0,-1.262453270E1,-7.001399040E0
3.413220641E1,4.080958843E0,-1.502453327E1,-1.062054348E1
3.415101500E1,4.444668293E0,-1.312463188E1,-3.622733593E0
3.416982359E1,4.048655987E0,-1.118166065E1,1.373480201E0
3.418863219E1,4.302295208E0,-1.122832012E1,1.649851203E0
3.420744078E1,4.754538536E0,-1.249053383E1,5.862415433E-1
3.422624938E1,6.068198204E0,-1.411526108E1,-1.919043779E0
3.424505797E1,7.223931789E0,-1.374078369E1,-3.780659676E0
3.426386656E1,6.664011002E0,-1.091725349E1,-2.203789711E0
3.428267516E1,4.466203690E0,-9.128618240E0,-1.015753269E0
3.430148375E1,2.821137905E0,-9.327222824E0,1.076770201E-2
3.432029234E1,1.978864312E0,-1.121157074E1,8.817551732E-1
3.433910094E1,1.386640668E0,-1.450768375E1,6.759724021E-1
3.435790953E1,6.939185858E-1,-1.814238167E1,1.042074203E0
3.437671813E1,5.874379873E-1,-2.096112633E1,1.692921996E0
3.439552672E1,5.587241054E-1,-2.114178467E1,1.526620865E0
3.441433531E1,-4.187439680E-1,-1.666002846E1,1.507478207E-1
3.443314391E1,-1.597209096E0,-1.119362450E1,-8.817551732E-1
3.445195250E1,-1.718046665E0,-7.014559746E0,-9.332008362E-1
3.447076109E1,-1.240678549E0,-4.096512318E0,-4.953143001E-1
3.448956969E1,-3.684946895E-1,-1.825723648E0,-1.024128079E0
3.450837828E1,1.495514214E-1,-8.709874153E-1,5.024927482E-2
3.452718688E1,2.931207716E-1,-4.522434771E-1,1.722832322E0
3.454599542E1,7.417750359E-2,-3.661018610E-1,2.207378864E0
3.456480401E1,3.876372576E-1,-7.046862841E-1,2.830709219E0
3.458361260E1,5.300102234E-1,-1.531406522E0,3.761517286E0
3.460242120E1,4.797609448E-1,-2.537588358E0,3.891926050E0
3.462122979E1,3.326023519E-1,-3.602394581E0,2.912065268E0
3.464003839E1,3.158525825E-1,-4.710271358E0,1.531406522E0
3.465884698E1,4.331009090E-1,-6.845865726E0,-6.867401004E-1
3.467765557E1,3.432504177E0,-1.724148369E1,-4.725585556E1
3.469646417E1,2.828316450E0,-1.995733643E1,-2.293999100E1
3.471527276E1,2.894119024E0,-1.557607937E1,-1.757528186E0
3.473408135E1,4.092923164E0,-1.050927734E1,-5.609972477E0
3.475288995E1,4.019941807E0,-7.599604607E0,-1.130130100E1
3.477169849E1,3.280559778E0,-9.081958771E0,-1.202513027E1
3.479050708E1,2.452643156E0,-1.282552910E1,-4.698307037E0
3.480931568E1,-2.476571500E-1,-1.336032486E1,1.539781332E0
3.482812427E1,-2.039881229E0,-1.244626713E1,2.868994236E0
3.484693286E1,-1.954936147E0,-9.498309135E0,5.029713154E0
3.486574146E1,-8.374879360E-1,-7.887939930E0,4.553541660E0
3.488455005E1,1.746760458E-1,-9.878767967E0,3.160918713E0
3.490335865E1,7.537391186E-1,-1.278963661E1,2.400001049E0
3.492216724E1,1.715653777E0,-1.388674641E1,2.876172781E0
3.494097578E1,2.853441000E0,-1.258026505E1,4.488935471E0
3.495978438E1,4.467400074E0,-1.107876873E1,5.485546112E0
3.497859297E1,4.701896667E0,-1.010488987E1,4.421936035E0
3.499740156E1,5.448457241E0,-8.484949112E0,-1.089930773E0
3.501621016E1,7.325626373E0,-6.090929985E0,-1.613958931E1
3.503501875E1,7.068397999E0,-7.483552933E0,-5.668596745E0
3.505382734E1,3.183650494E0,-7.371089935E0,2.787638307E-1
3.507263594E1,3.158525825E-1,-6.764509678E0,-3.302095234E-1
3.509144453E1,-1.040877849E-1,-6.388836384E0,-3.038884699E-1
3.511025307E1,3.002992272E-1,-5.802595139E0,6.723831892E-1
3.512906167E1,1.433300734E0,-5.816951752E0,2.122433662E0
3.514787026E1,1.770688772E0,-7.210771084E0,1.414158225E0
3.516667885E1,1.430907965E0,-9.298508644E0,-7.537391186E-1
3.518548745E1,3.864408433E-1,-1.175474167E1,-4.579862595E0
3.520429604E1,-4.043870270E-1,-1.376112270E1,-6.717849731E0
3.522310464E1,9.726824164E-1,-1.430549049E1,-3.748356581E0
3.524191318E1,3.019742250E0,-1.440000629E1,-4.929214716E-1
3.526072177E1,4.608576298E0,-1.316291714E1,5.958128572E-1
3.527953036E1,5.988038540E0,-1.148554897E1,-3.493520916E-1
3.529833896E1,6.622136593E0,-1.090289593E1,-3.547359467E0
3.531714755E1,6.780063152E0,-1.142094231E1,-5.264209747E0
3.533595609E1,6.628118515E0,-1.094836044E1,-3.736392498E0
3.535476469E1,4.828716278E0,-8.425128937E0,-8.362914920E-1
3.537357328E1,4.052245140E0,-8.324629784E0,2.009970903E0
3.539238188E1,5.041677475E0,-1.196052361E1,2.373680115E0
3.541119047E1,4.042674065E0,-1.601755524E1,9.391828775E-1
3.542999906E1,1.974078655E0,-2.055673981E1,1.067198873E0
3.544880760E1,1.246660590E0,-2.585205650E1,-7.010970116E-1
3.546761620E1,6.460621208E-2,-2.638086891E1,-2.277967215E0
3.548642479E1,-1.494317770E0,-1.954218292E1,-8.111668825E-1
3.550523339E1,-1.810170293E0,-1.321436310E1,-1.124626622E-1
3.552404198E1,-2.291127682E0,-8.538787842E0,1.122233868E0
3.554285057E1,-2.263610125E0,-5.155336380E0,3.136990547E0
3.556165912E1,-1.659422517E0,-2.746960402E0,2.886940479E0
3.558046771E1,-1.423729420E0,-1.253839016E0,2.269592285E0
3.559927630E1,-9.128618240E-1,-6.484549642E-1,2.017149448E0
3.561808490E1,-7.070791125E-1,-8.434699774E-1,2.708675146E0
3.563689344E1,-1.189232826E0,-1.282552958E0,3.193221807E0
3.565570203E1,-1.183250785E0,-1.982453585E0,3.785445452E0
3.567451062E1,-7.740781307E-1,-2.701496840E0,4.223331928E0
3.569331922E1,-3.816552162E-1,-3.107080221E0,2.670390129E0
3.571212781E1,-1.004985496E-1,-3.501895905E0,2.751746178E-1
3.573093641E1,-6.436693072E-1,-8.090133667E0,-2.924268532E1
3.574974495E1,-7.046862841E-1,-1.362592888E1,-2.495833588E1
3.576855354E1,2.626122952E0,-1.426002693E1,-1.217109203E1
3.578736214E1,3.897907972E0,-1.320359516E1,-7.573283672E0
3.580617073E1,2.746960402E0,-1.059302616E1,-7.389036179E0
3.582497927E1,2.062613010E0,-6.667600155E0,-1.119482040E1
3.584378786E1,1.598405480E0,-4.553541660E0,-1.351944828E1
3.586259646E1,-1.308874011E0,-6.811169624E0,4.700700283E0
3.588140505E1,-2.797209740E0,-8.985049248E0,6.508477688E0
3.590021359E1,-2.266003132E0,-1.430070496E1,1.517049551E0
3.591902219E1,-1.980060697E0,-1.963669968E1,-1.569691658E0
3.593783078E1,-1.645065546E0,-1.893440628E1,-5.491527915E-1
3.595663938E1,-1.263410330E0,-1.450050545E1,1.793420553E0
3.597544792E1,-1.794617027E-1,-1.181934738E1,2.522035122E0
3.599425651E1,1.828116536E0,-1.030947590E1,3.479164124E0
3.601306510E1,2.423929453E0,-9.297312737E0,3.778266907E0
3.603187370E1,2.855833769E0,-8.542376518E0,3.962514400E0
3.605068229E1,2.797209740E0,-8.501698494E0,2.847458839E0
3.606949083E1,2.719442844E0,-8.639286041E0,1.578066587E0
3.608829943E1,3.433700562E0,-8.768498421E0,-1.950150430E-1
3.610710802E1,4.821537495E0,-7.330412388E0,-7.799405575E0
3.612591656E1,4.711467743E0,-7.051648140E0,-6.362515450E0
3.614472516E1,4.214957237E0,-7.677371502E0,-3.833301783E0
3.616353375E1,1.683350682E0,-7.232306480E0,-3.065205812E0
3.618234234E1,-5.407779217E-1,-6.628118515E0,-1.475175142E0
3.620115094E1,9.822536707E-1,-7.631907940E0,4.414757788E-1
3.621995948E1,3.974478483E0,-8.991030693E0,1.289731383E0
3.623876807E1,5.340780258E0,-1.020538902E1,-7.621139884E-1
3.625757667E1,5.588437080E0,-1.076291656E1,-2.633301258E0
3.627638521E1,4.589433670E0,-1.194616699E1,-1.786242127E0
3.629519380E1,3.349951744E0,-1.262812138E1,-5.383850932E-1
3.631400240E1,1.897508383E0,-1.310788250E1,7.274180651E-1
3.633281099E1,1.022931695E0,-1.354457283E1,5.611169338E-1
3.635161953E1,4.917250574E-1,-1.330768299E1,-1.131805062E0
3.637042813E1,-1.076770201E-2,-1.271067429E1,-3.242274761E0
3.638923672E1,-2.572284341E-1,-1.222373486E1,-4.401597023E0
3.640804526E1,6.831508875E-1,-1.136949635E1,-3.774677753E0
3.642685385E1,2.075773716E0,-9.664610863E0,-3.069991350E0
3.644566245E1,3.592823267E0,-7.836493969E0,-1.506281853E0
3.646447104E1,4.996213913E0,-7.763513088E0,1.816152334E0
3.648327958E1,4.803591251E0,-1.059182930E1,3.408575773E0
3.650208818E1,3.640679598E0,-1.387717533E1,1.398604870E0
3.652089677E1,3.182454109E0,-1.913300896E1,-3.980460405E0
3.653970531E1,1.143769264E0,-2.176272202E1,-6.388836503E-1
3.655851391E1,-2.691925466E-1,-2.110708809E1,1.649851203E0
3.657732250E1,-3.421736360E-1,-1.841396713E1,8.195417523E-1
3.659613109E1,-1.666600943E0,-1.372283745E1,1.171286702E0
3.661493964E1,-2.388036966E0,-8.903693199E0,-4.331009090E-1
3.663374823E1,-1.867598057E0,-5.221138954E0,-1.931007862E0
3.665255682E1,-1.058824062E0,-3.489931822E0,9.846464992E-1
3.667136536E1,-8.853443861E-1,-2.748156786E0,2.328216314E0
3.669017396E1,-6.364908218E-1,-2.604587555E0,3.008974552E0
3.670898255E1,-4.450650215E-1,-2.971885681E0,3.347558975E0
3.672779109E1,-1.100698471E0,-3.205185890E0,3.092723370E0
3.674659969E1,-1.387837172E0,-3.334398270E0,3.294916868E0
3.676540828E1,-1.942971945E0,-3.219542980E0,2.297109842E0
3.678421682E1,-2.228914261E0,-3.372683525E0,-1.202393413E0
3.680302542E1,2.775674164E-1,-4.528416634E0,-7.712067604E0
3.682183401E1,2.572284460E0,-7.543373585E0,-1.919043732E1
3.684064255E1,4.845465660E0,-1.146879864E1,-2.031267166E1
3.685945115E1,6.686742783E0,-1.287577820E1,-9.397810936E0
3.687825974E1,4.845465660E0,-1.241755295E1,-6.082555294E0
3.689706828E1,2.246860504E0,-9.929018021E0,-7.025327206E0
3.691587688E1,3.641875982E0,-7.744370461E0,-9.900303841E0
3.693468547E1,1.998006940E0,-8.928817749E0,-2.634497643E0
3.695349401E1,-1.008574724E0,-1.270349503E1,2.727817893E-1
3.697230260E1,-1.567298770E-1,-1.626880074E1,-5.870790482E0
3.699111120E1,-1.219143152E0,-1.400758362E1,7.601997375E0
3.700991974E1,-1.462014675E0,-9.410971642E0,5.173282623E0
3.702872833E1,-6.795616150E-1,-9.104690552E0,2.516052961E0
3.704753693E1,5.862415433E-1,-1.124267673E1,2.053041935E0
3.706634547E1,1.747956991E0,-1.284227943E1,1.518245935E0
3.708515406E1,3.030509949E0,-1.226919842E1,1.514656782E0
3.710396266E1,3.822534084E0,-1.026760197E1,-3.840480447E-1
3.712277120E1,3.707678795E0,-8.242077827E0,-4.100101471E0
3.714157979E1,2.968296528E0,-8.790034294E0,-1.223928809E0
3.716038839E1,2.467000246E0,-8.751749039E0,-5.742774606E-1
3.717919693E1,1.841277003E0,-7.375875950E0,-2.002792597E0
3.719800552E1,8.147560954E-1,-6.265605927E0,-3.639483213E0
3.721681412E1,3.433700502E-1,-6.824330330E0,-3.270988464E0
3.723562266E1,1.447657645E-1,-7.424928665E0,-2.889333248E0
3.725443125E1,-1.914258115E-2,-7.691728592E0,-2.325823545E0
3.727323984E1,1.155733347E0,-7.653443336E0,-2.835494876E-1
3.729204839E1,2.269592285E0,-7.698906898E0,1.131805062E0
3.731085698E1,3.318845034E0,-8.451449394E0,1.436890006E0
3.732966557E1,3.957728624E0,-9.139386177E0,1.339980662E-1
3.734847412E1,4.140779495E0,-1.039083195E1,-2.009970903E0
3.736728271E1,3.707678795E0,-1.264965725E1,-2.621337175E0
3.738609130E1,2.315055847E0,-1.425284767E1,-3.187239647E0
3.740489984E1,1.137787223E0,-1.426361561E1,-2.255235434E0
3.742370844E1,1.424925923E0,-1.377906895E1,-6.927221417E-1
3.744251698E1,1.886740685E0,-1.333759308E1,-7.429714203E-1
3.746132557E1,1.898704767E0,-1.274536991E1,-1.034895778E0
3.748013417E1,2.333002090E0,-1.296072388E1,-1.306481123E0
3.749894271E1,3.209971666E0,-1.223450184E1,-2.416750908E0
3.751775130E1,3.905086517E0,-9.866804123E0,-2.689532757E0
3.753655990E1,4.920839787E0,-8.108079910E0,-3.567698479E0
3.755536844E1,4.636094093E0,-8.173882484E0,-9.559326172E-1
3.757417703E1,3.461217880E0,-1.000199890E1,3.710071564E0
3.759298557E1,1.825723648E0,-1.281236839E1,2.190629244E0
3.761179417E1,1.160519004E0,-1.610130310E1,8.075776696E-1
3.763060276E1,9.236295223E-1,-1.906481361E1,-3.373879790E-1
3.764941130E1,1.375873089E-1,-1.872742653E1,6.879364848E-1
3.766821990E1,-7.250252366E-1,-1.571964836E1,7.154539824E-1
3.768702849E1,-1.211964726E0,-1.255514050E1,4.127618968E-1
3.770583703E1,-1.012163997E0,-9.081958771E0,-2.039881229E0
3.772464562E1,-3.708875179E-2,-6.701099873E0,-1.649851203E0
3.774345417E1,6.735795736E-1,-5.270191669E0,7.980063558E-1
3.776226276E1,6.616154313E-1,-4.323830605E0,1.965703845E0
3.778107135E1,-1.387837082E-1,-3.632304668E0,2.298306227E0
3.779987990E1,-2.931207716E-1,-3.202793121E0,1.713261008E0
3.781868849E1,-6.329016089E-1,-3.095116138E0,3.223132133E0
3.783749703E1,-1.227517962E0,-2.910868645E0,4.143172264E0
3.785630563E1,-1.886740685E0,-3.108276606E0,2.634497643E0
3.787511422E1,-2.165504456E0,-3.704089403E0,-4.354937077E-1
3.789392276E1,-1.288534999E0,-4.934000492E0,-4.374079704E0
3.791273135E1,1.293320656E0,-7.202396393E0,-1.344048500E1
3.793153990E1,3.967299938E0,-1.010010433E1,-2.155694008E1
3.795034849E1,7.009773731E0,-1.204427242E1,-1.467039585E1
3.796915708E1,6.762116909E0,-1.146640587E1,-4.977071285E0
3.798796562E1,3.749552965E0,-1.083230782E1,-6.831508636E0
3.800677422E1,2.467000246E0,-9.022137642E0,-8.891729355E0
3.802558276E1,4.374079704E0,-7.209574699E0,-1.230389404E1
3.804439135E1,3.695714474E0,-7.691728592E0,-2.364108801E0
3.806319990E1,-8.937192559E-1,-9.267401695E0,4.524827480E0
3.808200849E1,-2.400001049E0,-1.099262714E1,2.258824587E0
3.810081708E1,-2.483749866E0,-1.434497166E1,-6.879364967E0
3.811962563E1,-1.963310957E0,-1.435693550E1,2.533999205E0
3.813843422E1,-9.930214286E-2,-1.284347534E1,4.632504463E0
3.815724276E1,2.799602449E-1,-1.213280678E1,3.605983734E0
3.817605135E1,5.252245665E-1,-1.152383423E1,2.740978241E0
3.819485990E1,1.326820135E0,-1.019462109E1,2.338984251E0
3.821366849E1,2.366501570E0,-8.803194046E0,2.262413740E0
3.823247708E1,3.337987661E0,-7.612765312E0,-1.411765367E-1
3.825128562E1,4.132404804E0,-7.258627415E0,-7.298109055E0
3.827009422E1,4.163511276E0,-8.699107170E0,-2.730210543E0
3.828890276E1,4.510470867E0,-8.809176445E0,-2.033899277E-1
3.830771135E1,2.036292076E0,-7.709674358E0,-2.368894368E-1
3.832651990E1,5.359922647E-1,-7.671389580E0,-1.838884234E0
3.834532849E1,4.761717021E-1,-7.776673794E0,-2.145165443E0
3.836413703E1,3.146561682E-1,-7.402196884E0,-1.665404558E0
3.838294563E1,6.867401004E-1,-7.082755089E0,-3.553341627E-1
3.840175422E1,1.216750264E0,-7.361518860E0,9.164510965E-1
3.842056276E1,1.962114573E0,-8.204988480E0,1.402194023E0
3.843937135E1,2.333002090E0,-9.089137077E0,1.854437590E-1
3.845817990E1,2.109273195E0,-1.036092186E1,-2.130808592E0
3.847698849E1,2.433500528E0,-1.302532959E1,-4.187439442E0
3.849579703E1,2.383251429E0,-1.482832146E1,-3.818944931E0
3.851460562E1,2.456232548E0,-1.448375511E1,-2.110469580E0
3.853341417E1,3.570091486E0,-1.356491184E1,-1.951346874E0
3.855222276E1,3.876372576E0,-1.279681587E1,-2.084148407E0
3.857103135E1,3.998406649E0,-1.282911873E1,-2.085345030E0
3.858983990E1,4.792823792E0,-1.265324593E1,-2.935993433E0
3.860864849E1,4.633700848E0,-1.015274620E1,-1.584048629E0
