"Time (s)","Gyroscope x (rad/s)","Gyroscope y (rad/s)","Gyroscope z (rad/s)"
8.579812500E-2,-3.724641204E-1,-3.180987239E-1,-2.397575416E-2
1.046071360E-1,-2.750339806E-1,-3.715478480E-1,2.924431302E-2
1.234160940E-1,-1.461452097E-1,-3.147390485E-1,-5.039489828E-3
1.422251040E-1,-7.803573459E-2,-2.582356930E-1,-7.040014863E-2
1.610341150E-1,-9.788827598E-2,-2.005106062E-1,-9.910997003E-2
1.798430730E-1,-1.293469071E-1,-1.910424829E-1,-9.788827598E-2
1.986520840E-1,-1.238492802E-1,-2.118112892E-1,-8.383878320E-2
2.174610420E-1,-1.345391124E-1,-2.371614426E-1,-6.245913357E-2
2.362700520E-1,-1.632489264E-1,-2.368560284E-1,-5.085303262E-2
2.550790630E-1,-2.399102598E-1,-2.426590770E-1,-4.871506989E-2
2.738880210E-1,-3.394783735E-1,-2.872509360E-1,-3.222219273E-2
2.926970310E-1,-3.855973184E-1,-3.428380191E-1,-3.405473381E-2
3.115060420E-1,-3.651339412E-1,-4.008685052E-1,-1.847812906E-2
3.303150520E-1,-3.287885487E-1,-3.917058110E-1,-1.542389300E-2
3.491240110E-1,-3.180987239E-1,-3.077143133E-1,-2.000524849E-2
3.679330210E-1,-3.437542915E-1,-2.237228155E-1,3.199312463E-2
3.867420310E-1,-3.489464819E-1,-1.446180940E-1,7.872293890E-2
4.055510420E-1,-3.168770075E-1,-1.653869003E-1,8.880192041E-2
4.243600000E-1,-3.180987239E-1,-3.061871827E-1,1.068219170E-1
4.431690110E-1,-5.468609929E-1,-6.385644674E-1,1.425564736E-1
4.619780210E-1,-7.252284288E-1,-6.089383364E-1,2.329618782E-1
4.807870310E-1,-6.473453641E-1,-4.811949134E-1,2.460950911E-1
4.995960420E-1,-3.816268146E-1,-3.889569938E-1,1.065164879E-1
5.184050520E-1,-1.360662282E-1,-3.816268146E-1,-1.359135192E-2
5.372140630E-1,-1.033858955E-1,-4.356867969E-1,-1.084253844E-2
5.560230210E-1,-3.037438095E-1,-4.873034060E-1,-1.068982761E-3
5.748320310E-1,-7.243121266E-1,-5.597651601E-1,5.428905040E-2
5.936410420E-1,-1.195886254E0,-5.631248355E-1,1.480541080E-1
6.124500520E-1,-1.459772229E0,-9.015341997E-1,2.686964273E-1
6.312590630E-1,-1.633863688E0,-9.131402969E-1,3.933092654E-1
6.500680730E-1,-1.495506763E0,-7.692857385E-1,4.232407808E-1
6.688770840E-1,-1.056613088E0,-5.802285671E-1,3.117611706E-1
6.876860940E-1,-6.088619828E-1,-9.086353332E-2,1.016297117E-1
7.064951040E-1,-2.215848416E-1,5.572454333E-1,-7.986827940E-2
7.253041150E-1,1.806580722E-1,8.266290426E-1,-2.069245130E-1
7.441131250E-1,5.056288242E-1,5.786250830E-1,-2.655658424E-1
7.629221360E-1,7.056813240E-1,2.392994165E-1,-2.295258641E-1
7.817311460E-1,7.249229550E-1,1.815743446E-1,-1.061347127E-1
8.005401560E-1,4.653128982E-1,4.625640810E-1,7.627955079E-2
8.193491670E-1,1.021642014E-1,5.431959033E-1,2.479276359E-1
8.381581770E-1,-1.605001241E-1,7.209524512E-1,1.917296797E-1
8.569671880E-1,-3.516952991E-1,8.525900841E-1,-7.314895838E-2
8.757761980E-1,-4.799732268E-1,7.166765332E-1,-2.710634768E-1
8.945852090E-1,-3.593308926E-1,3.458922505E-1,-3.293993771E-1
9.133942190E-1,-1.702736765E-1,1.437018216E-1,-2.750339806E-1
9.322032290E-1,-1.537808031E-1,4.993676394E-2,-2.328855246E-1
9.510122400E-1,-1.085781008E-1,-3.813214004E-1,-3.174878657E-1
9.698212500E-1,1.910424829E-1,-6.681905389E-1,-4.088095427E-1
9.886302610E-1,6.675033569E-1,-8.691592813E-1,-5.572454333E-1
1.007439271E0,9.426900148E-1,-9.867473841E-1,-6.806365848E-1
1.026248281E0,9.118422270E-1,-9.073372483E-1,-6.259657145E-1
1.045057292E0,6.565080881E-1,-7.509603500E-1,-4.375193417E-1
1.063866354E0,3.269560039E-1,-5.927509069E-1,-2.301367074E-1
1.082675365E0,4.734066315E-3,-5.841990709E-1,-1.116323397E-1
1.101484375E0,-1.989834905E-1,-6.715502143E-1,-1.192679256E-1
1.120293386E0,-2.334963679E-1,-7.952467799E-1,-1.598892659E-1
1.139102396E0,-1.324011385E-1,-7.402704954E-1,-1.507265568E-1
1.157911406E0,-5.482354015E-2,-5.912237763E-1,-1.482831687E-1
1.176720417E0,-2.794626169E-2,-4.091149569E-1,-2.499892414E-1
1.195529479E0,1.420219894E-2,-3.257342875E-1,-3.480302393E-1
1.214338490E0,3.130592033E-2,-3.055763543E-1,-3.923166394E-1
1.233147500E0,-2.290677279E-3,-4.213318825E-1,-3.742966652E-1
1.251956511E0,-7.192726433E-2,-4.857762754E-1,-3.104631305E-1
1.270765521E0,-1.259872466E-1,-3.999522328E-1,-2.741177082E-1
1.289574531E0,-1.733279079E-1,-1.947075576E-1,-2.231119573E-1
1.308383594E0,-2.518217862E-1,-8.475505561E-2,-2.053973973E-1
1.327192604E0,-2.765611112E-1,1.450762246E-2,-1.559187621E-1
1.346001615E0,-2.499892414E-1,6.184828654E-2,-4.077405483E-2
1.364810625E0,-2.829749882E-1,1.598892659E-1,4.879142344E-2
1.383619636E0,-3.828485310E-1,2.548760176E-1,8.849649876E-2
1.402428698E0,-4.439332485E-1,2.231119573E-1,1.321720779E-1
1.421237709E0,-3.697153032E-1,-2.397575416E-2,2.210503519E-1
1.440046719E0,-2.753393948E-1,-5.215871930E-1,3.618506491E-1
1.458855729E0,-1.449235082E-1,-1.127242208E0,5.622085333E-1
1.477664792E0,-6.261184346E-3,-1.732591867E0,8.297596574E-1
1.496473802E0,8.872556686E-2,-2.304344893E0,1.149538159E0
1.515282813E0,2.279987335E-1,-2.651916981E0,1.514519453E0
1.534091823E0,4.506525695E-1,-2.715750456E0,1.858426452E0
1.552900834E0,5.633538961E-1,-2.607019663E0,2.015719652E0
1.571709896E0,4.527905285E-1,-2.437814951E0,2.016635895E0
1.590518906E0,2.512109280E-1,-2.049010754E0,2.021217108E0
1.609327917E0,1.827960461E-1,-1.668758392E0,2.074971676E0
1.628136979E0,3.025220931E-1,-1.544145465E0,2.245398283E0
1.646945990E0,5.245651007E-1,-1.638216019E0,2.502564907E0
1.665755000E0,8.553388715E-1,-1.922565341E0,2.534328938E0
1.684564063E0,1.132434487E0,-1.855677605E0,2.357183218E0
1.703373073E0,1.184967279E0,-1.452518463E0,2.356266975E0
1.722182084E0,1.231086254E0,-1.084788322E0,2.450642824E0
1.740991094E0,1.467178702E0,-1.234445930E0,2.537688494E0
1.759800156E0,1.941807032E0,-1.459237695E0,2.557541132E0
1.778609167E0,2.324502945E0,-1.550253987E0,2.526998758E0
1.797418177E0,2.615876913E0,-1.531317711E0,2.487293720E0
1.816227240E0,2.769505024E0,-1.613476634E0,2.293960571E0
1.835036250E0,2.744154930E0,-1.383492708E0,2.015414238E0
1.853845261E0,2.553265095E0,-9.898016453E-1,1.910959244E0
1.872654323E0,2.439342260E0,-1.037753105E0,1.883776546E0
1.891463334E0,2.471717119E0,-1.530401468E0,1.881333232E0
1.910272344E0,2.324502945E0,-2.140637875E0,1.649211287E0
1.929081406E0,1.621417642E0,-2.203249693E0,1.317521214E0
1.947890417E0,2.392994165E-1,-5.979431272E-1,1.162671447E0
1.966699427E0,-6.830799580E-1,2.151709497E-1,9.824714661E-1
1.985508438E0,-1.053558826E0,-3.874298632E-1,1.231086254E0
2.004317500E0,-9.610154629E-1,-1.106778860E0,1.223756075E0
2.023126511E0,-7.041541934E-1,-1.680975318E0,8.554152250E-1
2.041935573E0,-4.194993675E-1,-1.926841378E0,7.488223910E-1
2.060744584E0,-3.975088596E-1,-2.272886276E0,9.546779394E-1
2.079553594E0,-3.669664860E-1,-2.453696966E0,1.343482137E0
2.098362604E0,-4.271349311E-1,-2.134834766E0,1.784819365E0
2.117171667E0,-5.670189857E-1,-1.619585156E0,2.135140181E0
2.135980677E0,-4.970769584E-1,-1.295225263E0,2.342828274E0
2.154789740E0,-5.115845799E-2,-9.085589647E-1,2.694752693E0
2.173598750E0,7.719582319E-1,-1.008127093E0,3.476331711E0
2.192407761E0,1.337984562E0,-1.396015048E0,3.554825544E0
2.211216771E0,1.495277762E0,-2.110095501E0,3.280555248E0
2.230025834E0,1.438774347E0,-2.631759167E0,2.990708113E0
2.248834844E0,9.907178879E-1,-3.196563721E0,2.812951565E0
2.267643906E0,-2.702999115E-2,-3.879490852E0,3.197174549E0
2.286452917E0,-5.862606764E-1,-4.721238613E0,3.603388071E0
2.305261927E0,-8.968765140E-1,-5.523281097E0,3.706315756E0
2.324070990E0,-9.836167693E-1,-6.231634617E0,3.564293861E0
2.342880000E0,-8.348754644E-1,-6.351360798E0,3.274141312E0
2.361689011E0,-3.440597057E-1,-5.727914810E0,2.750034332E0
2.380498073E0,5.248705149E-1,-4.040754795E0,1.905156255E0
2.399307084E0,1.628442407E0,-2.205693007E0,8.679376245E-1
2.418116094E0,1.721291184E0,-1.607673645E0,5.389963388E-1
2.436925156E0,9.812497497E-1,-1.501386166E0,7.540146112E-1
2.455734167E0,1.751604527E-1,-1.050886393E0,1.188021541E0
2.474543177E0,-1.229330078E-1,-1.244601309E-1,1.534982800E0
2.493352240E0,1.695101149E-2,7.252284288E-1,1.832465410E0
2.512161250E0,2.521272004E-1,1.259414315E0,2.111927986E0
2.530970261E0,4.579827189E-1,1.531852245E0,2.231043339E0
2.549779323E0,5.853443742E-1,1.529714227E0,2.134529352E0
2.568588334E0,6.461237073E-1,1.234980464E0,1.849263668E0
2.587397344E0,6.684195995E-1,7.624900937E-1,1.617141724E0
2.606206406E0,5.749599934E-1,5.190674663E-1,1.683418632E0
2.625015417E0,4.170559645E-1,5.676298141E-1,1.919816613E0
2.643824427E0,3.959817290E-1,5.483881235E-1,2.182175398E0
2.662633490E0,4.436278343E-1,6.754443645E-1,2.350158453E0
2.681442500E0,4.827220440E-1,1.130831003E0,2.301596165E0
2.700251511E0,4.555393457E-1,1.693421364E0,2.188894749E0
2.719060573E0,3.394783735E-1,1.980824947E0,1.974182010E0
2.737869584E0,2.331909388E-1,1.729461312E0,1.483366251E0
2.756678594E0,1.696628332E-1,9.521581531E-1,6.235986948E-1
2.775487656E0,1.278197914E-1,3.272614181E-1,-1.986780763E-1
2.794296667E0,4.230117425E-2,5.726693198E-2,-5.786250830E-1
2.813105677E0,5.848862603E-2,-6.978929788E-2,-5.883986354E-1
2.831914740E0,7.620319724E-2,-1.342336833E-1,-3.736858070E-1
2.850723750E0,3.466558084E-2,-2.509055138E-1,-9.483403713E-2
2.869532761E0,1.269035190E-1,-6.657471657E-1,3.260397166E-2
2.888341823E0,2.026485801E-1,-8.966473937E-1,-1.084253844E-2
2.907150834E0,1.311794519E-1,-7.967739105E-1,-3.191677108E-2
2.925959844E0,-6.978929788E-2,-4.479037523E-1,8.399150101E-4
2.944768906E0,-2.020377368E-1,-1.714953631E-1,2.061609412E-3
2.963577917E0,-1.708845198E-1,-1.339282542E-1,-5.115845799E-2
2.982386927E0,-1.427855492E-1,-2.396048307E-1,-6.337540597E-2
3.001195990E0,-1.867665499E-1,-5.139515996E-1,-1.180462316E-1
3.020005000E0,-3.034383655E-1,-7.912762761E-1,-2.606790662E-1
3.038814011E0,-4.891359508E-1,-9.293277264E-1,-4.714213610E-1
3.057623073E0,-7.252284288E-1,-9.424609542E-1,-6.714738607E-1
3.076432084E0,-9.646805525E-1,-9.360470772E-1,-8.116632700E-1
3.095241094E0,-1.124417067E0,-1.036226034E0,-8.977927566E-1
3.114050104E0,-1.139077425E0,-1.252465963E0,-9.628480077E-1
3.132859167E0,-1.048672080E0,-1.442439437E0,-1.016907930E0
3.151668177E0,-9.142856598E-1,-1.600038052E0,-9.509364963E-1
3.170477188E0,-7.759287357E-1,-1.670285463E0,-7.863131166E-1
3.189286250E0,-6.690304875E-1,-1.647378683E0,-5.315898061E-1
3.208095261E0,-6.064186096E-1,-1.334624887E0,-2.762556672E-1
3.226904271E0,-5.184566379E-1,-8.673267365E-1,-1.363716573E-1
3.245713334E0,-3.846810758E-1,-3.935383558E-1,-1.244601309E-1
3.264522344E0,-2.719797492E-1,-4.199574888E-2,-1.904316396E-1
3.283331354E0,-2.099787444E-1,1.470614821E-1,-2.899997234E-1
3.302140365E0,-1.437018216E-1,6.765133142E-2,-3.581092060E-1
3.320949427E0,-3.588727489E-2,-2.628170252E-1,-4.109475017E-1
3.339758438E0,6.306997687E-2,-6.168794036E-1,-4.231644273E-1
3.358567448E0,8.719844371E-2,-8.425874114E-1,-3.987305462E-1
3.377376459E0,5.879404768E-2,-9.427663684E-1,-3.416163325E-1
3.396185521E0,-1.817270555E-2,-9.122240543E-1,-2.438807636E-1
3.414994531E0,-1.122431830E-1,-7.091172934E-1,-1.458397806E-1
3.433803542E0,-1.626380831E-1,-3.605526090E-1,-6.429167092E-2
3.452612604E0,-1.818797737E-1,4.352286831E-2,-2.428117767E-2
3.471421615E0,-1.772984117E-1,3.461976945E-1,-2.336490713E-2
3.490230625E0,-1.287360638E-1,4.311054647E-1,-3.008422814E-2
3.509039636E0,-9.055810422E-2,4.063661397E-1,-1.114796288E-2
3.527848698E0,-6.795676053E-2,3.110739589E-1,-5.344913341E-3
3.546657709E0,-6.276455522E-2,1.272089481E-1,-6.872031838E-3
3.565466719E0,-2.580829710E-2,-4.413371533E-2,-3.008422814E-2
3.584275729E0,5.085303262E-2,-1.272089481E-1,-6.520794332E-2
3.603084792E0,1.180462316E-1,-1.412584335E-1,-1.238492802E-1
3.621893802E0,1.504211426E-1,-1.241547018E-1,-1.944021434E-1
3.640702813E0,1.385096163E-1,-6.673506647E-2,-2.643441558E-1
3.659511823E0,1.821851879E-1,-8.399149403E-3,-2.936648130E-1
3.678320886E0,2.985515893E-1,6.856760383E-2,-2.808370292E-1
3.697129896E0,4.063661397E-1,2.179197669E-1,-2.719797492E-1
3.715938906E0,4.427115619E-1,3.672719002E-1,-2.637332976E-1
3.734747917E0,4.106420577E-1,5.175403357E-1,-2.451024652E-1
3.753556979E0,3.871244490E-1,6.836907864E-1,-2.634278834E-1
3.772365990E0,3.917058110E-1,8.449544907E-1,-3.287885487E-1
3.791175000E0,4.598152637E-1,9.775083065E-1,-4.023956358E-1
3.809984011E0,5.932853818E-1,1.062110662E0,-4.448495209E-1
3.828793021E0,7.136223316E-1,1.153432369E0,-4.246915579E-1
3.847602084E0,7.172874212E-1,1.246281147E0,-3.648285270E-1
3.866411094E0,5.581616759E-1,1.308282137E0,-3.064926267E-1
3.885220104E0,1.968455315E-1,1.190388560E0,-2.695363462E-1
3.904029115E0,-2.942756712E-1,8.415948153E-1,-2.750339806E-1
3.922838125E0,-4.815003574E-1,8.186880350E-1,-3.223746419E-1
3.941647188E0,-4.524851143E-1,1.637528777E0,-4.735593498E-1
3.960456198E0,-6.015318632E-1,2.873960018E0,-7.035433054E-1
3.979265209E0,-8.086090684E-1,3.490915775E0,-7.802046537E-1
3.998074219E0,-9.313893318E-1,2.914886713E0,-3.507790267E-1
4.016883281E0,-1.087460876E0,1.173590302E0,3.847574294E-1
4.035692292E0,-4.903576374E-1,3.092414141E-1,7.417976260E-1
4.054501302E0,3.724641204E-1,7.014053464E-1,6.376481652E-1
4.073310313E0,1.058216572E0,1.117086887E0,3.291703165E-1
4.092119323E0,1.563998103E0,1.038898468E0,1.843995154E-1
4.110928334E0,1.903323650E0,6.873558760E-1,4.174377322E-1
4.129737396E0,1.937836528E0,2.753393948E-1,6.348993778E-1
4.148546406E0,9.558232427E-1,-1.763821393E-1,4.052208066E-1
4.167355417E0,7.579087615E-1,1.284306347E-1,-1.488940120E-1
4.186164427E0,1.061270714E0,6.449019909E-1,-4.592044353E-1
4.204973438E0,1.194435477E0,6.265766025E-1,-3.223746419E-1
4.223782500E0,1.215509653E0,4.472928941E-1,-5.115845799E-2
4.242591511E0,1.266209960E0,6.143596172E-1,4.176668078E-2
4.261400521E0,1.396625876E0,1.261857748E0,3.779617324E-2
4.280209531E0,1.361196756E0,1.104564548E0,4.909684882E-2
4.299018542E0,1.170001626E0,6.189410090E-1,-2.367033064E-2
4.317827552E0,8.128849864E-1,2.200577259E-1,3.657447919E-2
4.336636615E0,5.328115225E-1,6.520794332E-2,1.862320602E-1
4.355445625E0,4.298837483E-1,1.721062213E-1,2.751103342E-1
4.374254636E0,3.620797098E-1,4.845545888E-1,3.248943985E-1
4.393063646E0,2.591519356E-1,9.121476412E-1,3.041255772E-1
4.411872656E0,1.094943732E-1,1.190083146E0,2.711398304E-1
4.430681667E0,-1.450762246E-2,1.117392302E0,2.430408597E-1
4.449490729E0,-1.119377613E-1,6.021426916E-1,2.027249336E-1
4.468299740E0,-2.389939874E-1,-1.378987730E-1,1.043785289E-1
4.487108750E0,-4.219427407E-1,-5.267794132E-1,-3.863608837E-2
4.505917761E0,-9.909469485E-1,-7.717291713E-1,-9.758284688E-2
4.524726771E0,-1.972349405E0,-8.315922022E-1,-1.305686086E-1
4.543535781E0,-2.592970371E0,-6.422295570E-1,-2.212794125E-1
4.562344792E0,-2.630842686E0,-1.327905536E0,-5.926745534E-1
4.581153802E0,-2.345882654E0,-2.330916882E0,-1.024543524E0
4.599962865E0,-2.094824314E0,-2.920995235E0,-1.060889006E0
4.618771875E0,-1.912791848E0,-3.026061058E0,-7.356128097E-1
4.637580886E0,-1.745725155E0,-2.805239677E0,-4.784461260E-1
4.656389896E0,-1.608208179E0,-2.140637875E0,-3.828485310E-1
4.675198906E0,-1.594158649E0,-1.522765875E0,-3.376458287E-1
4.694007917E0,-1.640277624E0,-7.628718615E-1,-2.438807636E-1
4.712816927E0,-1.594158649E0,-1.904316396E-1,-1.458397806E-1
4.731625938E0,-1.480540991E0,-4.718795046E-2,-5.787777901E-2
4.750434948E0,-1.298508525E0,-7.650861889E-2,5.673243850E-2
4.769244011E0,-1.057223916E0,-1.748550236E-1,1.685174853E-1
4.788053021E0,-8.095253110E-1,-2.356343269E-1,2.506764531E-1
4.806862031E0,-5.554128885E-1,-1.730224788E-1,3.093177676E-1
4.825671042E0,-3.199312389E-1,-8.658760041E-2,3.487174213E-1
4.844480052E0,-1.085781008E-1,-2.179197669E-1,3.377221823E-1
4.863289063E0,7.162184268E-2,-5.050943494E-1,2.760266066E-1
4.882098073E0,1.693574041E-1,-9.177216291E-1,2.714452446E-1
4.900907084E0,4.497362971E-1,-1.435720086E0,3.090123534E-1
4.919716094E0,1.032255530E0,-1.698689818E0,2.818296552E-1
4.938525104E0,1.199933052E0,-1.306831360E0,1.104869992E-1
4.957334115E0,6.956022978E-1,3.680354729E-2,-1.391204596E-1
4.976143125E0,1.620272398E-1,1.247808218E0,-3.067980409E-1
4.994952136E0,2.183778957E-2,1.884921908E0,-2.841966748E-1
5.013761146E0,1.629435122E-1,2.087723255E0,-1.317902952E-1
5.032570156E0,2.212794125E-1,1.756644011E0,-1.632489264E-1
5.051379167E0,-1.908897609E-2,9.808679819E-1,-4.949389994E-1
5.070188177E0,-4.427115619E-1,-1.388150454E-1,-7.673768401E-1
5.088997240E0,-4.698942602E-1,-9.827768803E-1,-8.608365059E-1
5.107806250E0,-3.894151375E-2,-1.052718878E0,-8.926005363E-1
5.126615261E0,5.419742465E-1,-3.724641204E-1,-8.730534315E-1
5.145424271E0,7.435538173E-1,6.403206587E-1,-5.444176197E-1
5.164233281E0,8.414421231E-2,1.099677801E0,-1.511846948E-2
5.183042292E0,-9.561286569E-1,3.034383655E-1,2.305184901E-1
5.201851302E0,-4.152234197E-1,1.025765300E0,2.592283189E-1
5.220660313E0,2.521272004E-1,1.762447000E0,4.965424538E-1
5.239469323E0,6.595623493E-1,1.726101637E0,5.805339813E-1
5.258278334E0,7.453863621E-1,1.352263093E0,3.383330107E-1
5.277087344E0,7.032378912E-1,8.293778896E-1,6.253548712E-2
5.295896354E0,6.812474132E-1,3.932329118E-1,-4.932591692E-2
5.314705365E0,8.098307252E-1,7.895200700E-2,-4.291202128E-2
5.333514323E0,1.170917869E0,1.079672500E-1,3.199312463E-2
5.352323386E0,1.218258500E0,5.615213513E-1,9.643751383E-2
5.371132344E0,8.055548072E-1,1.002247691E0,1.794363745E-2
5.389941354E0,5.245651007E-1,1.075854778E0,-3.817795310E-3
5.408750365E0,6.638382673E-1,7.331694365E-1,1.691283286E-1
5.427559375E0,8.635852933E-1,4.323271513E-1,3.114557564E-1
5.446368386E0,9.998806119E-1,1.192679256E-1,3.762055635E-1
5.465177396E0,1.116552472E0,-4.857762754E-1,3.160370886E-1
5.483986406E0,1.080512404E0,-8.822925091E-1,2.344889939E-1
5.502795417E0,8.990144730E-1,-7.537091374E-1,2.674747407E-1
5.521604427E0,6.360446811E-1,5.909947306E-2,2.430408597E-1
5.540413438E0,3.800997138E-1,9.891144037E-1,1.804290116E-1
5.559222448E0,2.243336588E-1,1.449693203E0,2.033357769E-1
5.578031459E0,1.027750522E-1,1.671125412E0,2.696126997E-1
5.596840469E0,-7.177455351E-3,1.574306130E0,4.061370790E-1
5.615649479E0,-1.430909634E-1,1.442668557E0,5.487698913E-1
5.634458438E0,-2.063136548E-1,1.161373377E0,5.670953393E-1
5.653267448E0,-1.149920002E-1,7.643226385E-1,4.088858962E-1
5.672076459E0,8.093725890E-3,9.880454093E-2,3.416926861E-1
5.690885469E0,5.955760833E-3,-4.155288339E-1,3.151208162E-1
5.709694479E0,-1.226275861E-1,-7.830298543E-1,2.195232362E-1
5.728503490E0,-3.733803928E-1,-1.231086254E0,1.630198658E-1
5.747312500E0,-8.510629535E-1,-1.361196756E0,2.451788187E-1
5.766121511E0,-1.476265073E0,-1.329738140E0,5.759525895E-1
5.784930469E0,-2.097573042E0,-1.205125332E0,8.798491359E-1
5.803739479E0,-2.430790424E0,-1.099754095E0,9.467368722E-1
5.822548490E0,-2.539215803E0,-8.370898366E-1,8.089908361E-1
5.841357500E0,-2.416740894E0,-4.033119082E-1,7.298861146E-1
5.860166511E0,-1.978763342E0,-1.374406274E-3,6.471163034E-1
5.878975469E0,-1.387692213E0,3.804051280E-1,6.431457996E-1
5.897784479E0,-8.168554902E-1,2.145601064E-1,5.047888756E-1
5.916593490E0,-5.902311802E-1,-1.992889196E-1,2.735832036E-1
5.935402500E0,-8.761076927E-1,-3.923166394E-1,-1.470614821E-1
5.954211511E0,-1.216044188E0,-4.509579837E-1,-5.267030597E-1
5.973020469E0,-1.293621778E0,-3.113794029E-1,-7.896727920E-1
5.991829479E0,-1.188556075E0,2.133384049E-1,-8.739697337E-1
6.010638490E0,-9.964445829E-1,8.364025950E-1,-7.988355160E-1
6.029447500E0,-7.594358325E-1,1.187639832E0,-6.036698222E-1
6.048256459E0,-5.086830258E-1,1.287207842E0,-2.704526186E-1
6.067065469E0,-2.029540092E-1,1.134496093E0,1.083490327E-1
6.085874479E0,1.265980899E-1,6.904101372E-1,4.742465317E-1
6.104683490E0,5.325061083E-1,6.765133142E-2,7.295807004E-1
6.123492448E0,1.033171773E0,-5.099810958E-1,8.260945678E-1
6.142301459E0,1.519406199E0,-1.054856896E0,8.541935086E-1
6.161110469E0,1.750611901E0,-1.345620155E0,7.924979329E-1
6.179919427E0,1.432054996E0,-8.679376245E-1,5.866424441E-1
6.198728438E0,7.875348330E-1,4.451549351E-1,3.624614775E-1
6.217537448E0,3.660502136E-1,1.960667014E0,1.804290116E-1
6.236346406E0,1.889045089E-1,3.365386724E0,6.284090877E-2
6.255155417E0,1.265980899E-1,4.409324646E0,-5.940489471E-2
6.273964427E0,1.898207814E-1,4.822868347E0,-1.748550236E-1
6.292773386E0,5.349494815E-1,4.437423706E0,-1.855448484E-1
6.311582396E0,8.177717924E-1,3.605755091E0,-8.414421231E-2
6.330391406E0,5.764871240E-1,2.348936796E0,1.458397787E-2
6.349200365E0,-3.512371797E-3,9.674293399E-1,8.116632700E-2
6.368009375E0,-3.504736125E-1,2.519745007E-2,9.918632358E-2
6.386818386E0,-2.771719396E-1,-3.660502136E-1,1.065164879E-1
6.405627344E0,1.939439960E-2,-3.196258247E-1,1.184280142E-1
6.424436354E0,2.087570578E-1,8.719844371E-2,1.770693511E-1
6.443245313E0,3.000787199E-1,8.477032781E-1,2.024195045E-1
6.462054323E0,3.187095523E-1,1.413347840E0,-4.474456236E-2
6.480863281E0,7.864658535E-2,1.858044624E0,-5.306735635E-1
6.499672292E0,6.261184346E-3,2.435066223E0,-8.263236284E-1
6.518481250E0,-4.790569544E-1,2.246314526E0,-5.661026835E-1
6.537290261E0,-1.088377118E0,1.566365123E0,1.340046227E-1
6.556099271E0,-1.193748236E0,8.073873520E-1,9.656731486E-1
6.574908229E0,-4.650074840E-1,6.003101468E-1,1.286062598E0
6.593717240E0,7.973083854E-1,1.072189689E0,9.937721491E-1
6.612526198E0,1.547505140E0,7.667660117E-1,4.879906178E-1
6.631335209E0,1.946083069E0,-9.055810422E-2,3.493282795E-1
6.650144167E0,2.132696867E0,-7.530983090E-1,4.959316254E-1
6.668953177E0,2.364818811E0,5.909947306E-2,4.324035048E-1
6.687762136E0,2.384060383E0,2.357183218E0,2.567849159E-1
6.706571146E0,1.812002063E0,2.765229225E0,6.467345357E-2
6.725380104E0,1.357837081E0,2.094137192E0,-3.206948051E-3
6.744189063E0,1.310496449E0,1.153126955E0,1.752368063E-1
6.762998073E0,1.367610693E0,8.872556686E-2,4.528668821E-1
6.781807031E0,1.301333785E0,-4.417952895E-1,6.147413850E-1
6.800616042E0,1.309580207E0,-3.092414141E-1,6.000810862E-1
6.819425000E0,1.293087244E0,3.055763543E-1,7.662315369E-1
6.838234011E0,1.116857886E0,1.147934675E0,9.384904504E-1
6.857042969E0,8.455653191E-1,1.382500052E0,8.825979233E-1
6.875851927E0,5.392253995E-1,9.280297160E-1,6.361210346E-1
6.894660938E0,4.008685052E-1,2.933593988E-1,4.849363565E-1
6.913469896E0,4.002576768E-1,-1.272089481E-1,5.530458093E-1
6.932278854E0,4.818057716E-1,-4.123218823E-3,5.322770476E-1
6.951087865E0,2.273878902E-1,2.851129472E-1,4.388174117E-1
6.969896823E0,-4.103366435E-1,1.861557066E-1,2.977116704E-1
6.988705781E0,-1.037982225E0,-3.852919042E-1,-7.482878864E-3
7.007514792E0,-1.515359282E0,-1.126631379E0,-2.790044844E-1
7.026323750E0,-2.219131708E0,-1.977541685E0,-3.547495604E-1
7.045132709E0,-3.023922920E0,-3.088978291E0,-5.312843919E-1
7.063941719E0,-3.603006124E0,-4.063050747E0,-1.001636744E0
7.082750677E0,-4.066028595E0,-4.354424477E0,-1.346460104E0
7.101559636E0,-4.286849499E0,-4.047168732E0,-1.290567517E0
7.120368594E0,-3.820162296E0,-2.914886713E0,-1.060583591E0
7.139177604E0,-2.877319574E0,-1.005683661E0,-9.772028923E-1
7.157986563E0,-2.017246723E0,7.420266867E-1,-9.063445926E-1
7.176795521E0,-1.436865449E0,1.811314821E0,-7.725690603E-1
7.195604479E0,-1.034011722E0,2.484850407E0,-6.311579347E-1
7.214413490E0,-8.101361990E-1,2.593275785E0,-4.424061179E-1
7.233222448E0,-8.877137899E-1,2.050156116E0,-2.683146596E-1
7.252031406E0,-1.171757698E0,1.087155461E0,-2.793098986E-1
7.270840365E0,-1.187334418E0,-1.327065676E-1,-2.585411072E-1
7.289649323E0,-1.019962192E0,-9.143620133E-1,-1.913478971E-1
7.308458334E0,-7.524111271E-1,-1.349285245E0,-1.067455560E-1
7.327267292E0,-4.262186885E-1,-1.542312980E0,-1.206423342E-2
7.346076250E0,-2.855710872E-2,-1.424419403E0,1.095707268E-1
7.364885209E0,4.460712075E-1,-1.049359202E0,2.674747407E-1
7.383694167E0,9.313893318E-1,-6.235986948E-1,3.731513321E-1
7.402503125E0,1.599427223E0,-2.118112892E-1,4.308763742E-1
7.421312084E0,2.171180248E0,2.068481445E0,5.163949728E-1
7.440121042E0,2.322746664E-1,4.155517578E0,4.152997732E-1
7.458930000E0,-3.281776905E-1,4.181784153E0,3.135937154E-1
7.477739011E0,4.973823726E-1,3.385849953E0,3.392492831E-1
7.496547969E0,1.063103318E0,1.960667014E0,2.583120465E-1
7.515356927E0,1.168245375E-1,-8.170082420E-2,-6.032116711E-2
7.534165886E0,-7.588250041E-1,-1.563387156E0,-2.958027720E-1
7.552974844E0,-1.678302884E-1,-1.253076792E0,-3.202366829E-1
7.571783802E0,9.717816114E-1,-5.102865100E-1,-4.692834020E-1
7.590592761E0,1.223145247E0,-6.816291809E-1,-4.469874799E-1
7.609401719E0,7.554653287E-1,-1.112887383E0,-3.730749488E-1
7.628210677E0,4.871506989E-2,-1.212455511E0,-3.211529553E-1
7.647019636E0,4.260659590E-2,-6.862105131E-1,-1.293469071E-1
7.665828594E0,3.416163325E-1,-4.381301999E-1,3.245889544E-1
7.684637552E0,8.535063267E-1,-4.286620617E-1,5.988593698E-1
7.703446511E0,1.385325193E0,-2.490729690E-1,5.377746820E-1
7.722255469E0,1.723429203E0,-2.702999115E-2,3.059581220E-1
7.741064427E0,1.887747049E0,1.714953631E-1,1.642415524E-1
7.759873334E0,2.079858541E0,9.827005267E-1,2.350998372E-1
7.778682292E0,2.267999411E0,2.591443062E0,3.890333474E-1
7.797491250E0,2.209052801E0,3.566966295E0,3.975852132E-1
7.816300209E0,1.743587136E0,3.482669353E0,3.102340400E-1
7.835109167E0,1.045083284E0,2.309231758E0,2.360161096E-1
7.853918125E0,4.259132445E-1,9.197832346E-1,3.902550340E-1
7.872727084E0,2.738122940E-1,-3.283303976E-2,6.370373368E-1
7.891536042E0,6.412369013E-1,-4.048390090E-1,6.889593601E-1
7.910344948E0,1.128463984E0,-4.143071473E-1,5.771743059E-1
7.929153906E0,1.501080751E0,-2.667875290E-1,5.014292598E-1
7.947962865E0,1.577742100E0,1.495048702E-1,4.815767109E-1
7.966771823E0,1.325156808E0,6.925480962E-1,3.810923398E-1
7.985580781E0,9.733087420E-1,1.184280157E0,2.244100124E-1
8.004389740E0,5.083776116E-1,1.218487620E0,2.607554197E-1
8.023198646E0,5.940489471E-2,7.246175408E-1,4.736357033E-1
8.042007604E0,-1.846285909E-1,2.341072112E-1,4.812712967E-1
8.060816563E0,-4.921901822E-1,-1.278197914E-1,2.522035539E-1
8.079625469E0,-8.834378719E-1,-7.162184268E-2,-1.479777545E-1
8.098434427E0,-1.384943485E0,2.090624720E-1,-3.193204105E-1
8.117243386E0,-2.575255632E0,-3.092414141E-1,-3.040492237E-1
8.136052344E0,-3.676002502E0,-1.833687067E0,-4.204156399E-1
8.154861250E0,-3.749304056E0,-3.451592445E0,-9.097042680E-1
8.173670209E0,-3.783511639E0,-4.146125793E0,-1.239561796E0
8.192479167E0,-3.782595396E0,-4.235003948E0,-1.033400893E0
8.211288125E0,-3.155560493E0,-3.567653418E0,-5.190674663E-1
8.230097031E0,-1.939974546E0,-7.075902224E-1,-2.570139766E-1
8.248905990E0,-1.198024154E0,1.970440507E0,-2.619007528E-1
8.267714948E0,-7.838697433E-1,3.318351269E0,-2.234173864E-1
8.286523854E0,-1.751222730E0,7.938647270E0,-3.071034551E-1
8.305332813E0,-4.533402920E0,7.761806965E0,-1.005301833E0
8.324141719E0,-3.571242094E0,3.137540579E0,-9.536852837E-1
8.342950677E0,-2.041680574E0,-7.350783348E-1,-5.102101564E-1
8.361759636E0,-7.566870451E-1,-3.214889050E0,-2.637332976E-1
8.380568542E0,3.191677108E-2,-4.446968079E0,-1.919587553E-1
8.399377500E0,7.579087615E-1,-4.792707443E0,-2.099787444E-1
8.418186406E0,1.531012297E0,-3.827874422E0,-1.461452097E-1
8.436995365E0,2.099405766E0,-2.164766312E0,9.697199799E-3
8.455804271E0,2.339774132E0,-7.744779587E-1,2.128039151E-1
8.474613229E0,2.447588682E0,-9.849911928E-2,3.649048805E-1
8.493422136E0,9.858311415E-1,2.637256622E0,4.079696238E-1
8.512231094E0,-2.169958591E0,8.904397011E0,2.326564491E-1
8.531040000E0,-1.410293579E0,8.165271759E0,6.300125718E-1
8.549848959E0,4.784461260E-1,3.995170116E0,9.510128498E-1
8.568657865E0,1.176720858E0,-7.802810073E-1,5.652627945E-1
8.587466823E0,1.104106456E-1,-3.357216597E0,-4.121691883E-1
8.606275729E0,-6.015318632E-1,-3.433267117E0,-8.116632700E-1
8.625084688E0,3.254288733E-1,-2.688567877E0,-5.095993280E-1
8.643893594E0,1.147094846E0,-2.166904211E0,-2.182251811E-1
8.662702552E0,1.326683879E0,-1.579574704E0,-1.476723254E-1
8.681511459E0,6.430694461E-1,-6.880430579E-1,-2.133384049E-1
8.700320365E0,2.328855246E-1,1.989834905E-1,-1.962346882E-1
8.719129323E0,2.600682080E-1,5.462501645E-1,7.169819623E-2
8.737938229E0,6.522321701E-1,5.844281316E-1,3.453577757E-1
8.756747188E0,1.307136774E0,3.975088596E-1,4.989858568E-1
8.775556094E0,2.025798559E0,2.322746664E-1,4.192702770E-1
8.794365000E0,2.374592304E0,3.374931216E-2,2.467059344E-1
8.813173959E0,2.376119375E0,-2.689255178E-1,9.277242422E-2
8.831982865E0,2.367872953E0,1.699682474E-1,-1.420219894E-2
8.850791771E0,2.449421167E0,2.045269251E0,-1.389677543E-2
8.869600729E0,1.949442625E0,2.853191137E0,1.101815775E-1
8.888409636E0,1.064324975E0,2.008313179E0,2.653367817E-1
8.907218542E0,4.143071473E-1,7.395833135E-1,4.287384152E-1
8.926027500E0,3.397837877E-1,-1.290414780E-1,6.663579941E-1
8.944836406E0,6.656708121E-1,-3.755183518E-1,7.955521941E-1
8.963645313E0,1.071960568E0,-1.418692768E-1,7.781430483E-1
8.982454219E0,1.426252007E0,6.360446811E-1,6.874322295E-1
9.001263177E0,1.573771596E0,1.721825719E0,5.811448097E-1
9.020072084E0,1.392655373E0,2.013199806E0,4.876851737E-1
9.038880990E0,9.949938059E-1,1.121362805E0,4.968478978E-1
9.057689896E0,5.740436912E-1,2.367033064E-2,5.961105824E-1
9.076498802E0,2.927485406E-1,-2.203631550E-1,7.188908458E-1
9.095307761E0,-5.207473040E-2,4.734066315E-3,6.645254493E-1
9.114116667E0,-4.854708612E-1,-3.938437700E-1,4.574482441E-1
9.132925573E0,-7.288935184E-1,-5.393017530E-1,5.948125198E-2
9.151734479E0,-1.038898468E0,-3.694098890E-1,-3.657447994E-1
9.170543386E0,-1.855677605E0,-1.126631379E0,-4.940227270E-1
9.189352292E0,-2.876708746E0,-2.558457375E0,-6.415423155E-1
9.208161250E0,-3.395623446E0,-3.758237839E0,-1.001636744E0
9.226970156E0,-3.700436354E0,-4.056025982E0,-1.053864241E0
9.245779063E0,-3.646376371E0,-3.673330069E0,-7.395833135E-1
9.264587969E0,-3.122269392E0,-2.721248150E0,-4.326325655E-1
9.283396875E0,-2.423765659E0,-9.668948650E-1,-4.048390090E-1
9.302205781E0,-1.893855572E0,4.967715442E-1,-4.784461260E-1
9.321014688E0,-1.611262321E0,1.316833973E0,-4.686725736E-1
9.339823594E0,-1.455496311E0,1.785659194E0,-3.877353072E-1
9.358632500E0,-1.390135646E0,1.908439517E0,-2.133384049E-1
9.377441406E0,-1.546512604E0,1.491841674E0,2.557922900E-2
9.396250313E0,-1.679677248E0,8.070819378E-1,7.597412914E-2
9.415059219E0,-1.547123432E0,2.851129472E-1,1.767639220E-1
9.433868125E0,-1.280488610E0,-8.292251825E-2,2.567849159E-1
9.452677031E0,-9.637642503E-1,-3.318427801E-1,2.781645656E-1
9.471485938E0,-6.317687631E-1,-3.147390485E-1,3.025984466E-1
9.490294844E0,-9.269607067E-2,-3.211529553E-1,3.084014952E-1
9.509103750E0,6.650599241E-1,-5.631248355E-1,2.683910131E-1
9.527912656E0,1.320575476E0,-6.706339121E-1,2.375432253E-1
9.546721563E0,2.265250683E0,3.619270027E-2,3.395547271E-1
9.565530469E0,1.604008555E0,2.477214813E0,3.975852132E-1
9.584339375E0,-1.009577751E0,3.832990170E0,5.948125198E-2
9.603148281E0,-8.293778896E-1,3.642711163E0,2.710634656E-2
9.621957188E0,2.771719396E-1,2.246314526E0,9.002361447E-2
9.640766094E0,6.201626658E-1,-4.396573007E-1,-1.220167428E-1
9.659574948E0,-4.317162931E-1,-2.640616417E0,-2.594573796E-1
9.678383854E0,-7.896727920E-1,-2.870600224E0,-3.474193811E-1
9.697192761E0,2.322746664E-1,-1.987620592E0,-4.243861437E-1
9.716001667E0,1.173972130E0,-1.128463984E0,-3.223746419E-1
9.734810573E0,1.399069309E0,-5.292227864E-1,-7.070557028E-2
9.753619479E0,9.888853431E-1,2.564031482E-1,1.914242655E-1
9.772428334E0,3.196258247E-1,8.257128000E-1,3.612397909E-1
9.791237240E0,1.360662282E-1,1.120751977E0,5.835881829E-1
9.810046146E0,3.727695346E-1,1.412737012E0,7.524874806E-1
9.828855052E0,9.536852837E-1,1.585606813E0,6.804074645E-1
9.847663959E0,1.548115969E0,1.417012930E0,5.738146305E-1
9.866472813E0,1.994950771E0,1.003774762E0,4.919611216E-1
9.885281719E0,2.387420177E0,7.466080785E-1,3.786489367E-1
9.904090625E0,2.866019011E0,1.542236567E0,2.247154415E-1
9.922899479E0,2.456751347E0,1.760309100E0,9.888090193E-2
9.941708386E0,1.434498429E0,8.470924497E-1,-1.236965694E-2
9.960517292E0,8.736643195E-1,1.256818175E-1,1.305686031E-2
9.979326198E0,8.150229454E-1,-3.058817685E-1,1.697391868E-1
9.998135052E0,1.043556213E0,-4.402681589E-1,3.203130364E-1
1.001694396E1,1.372192025E0,-1.110214889E-1,4.009448588E-1
1.003575287E1,1.567357659E0,6.348230243E-1,4.928773940E-1
1.005456172E1,1.550253987E0,1.321109891E0,5.991647840E-1
1.007337062E1,1.535899043E0,1.715106368E0,6.620820761E-1
1.009217948E1,1.539564133E0,1.823837161E0,7.185854316E-1
1.011098839E1,1.219174743E0,1.294843435E0,7.243884802E-1
1.012979729E1,6.467345357E-1,3.797942698E-1,5.441885591E-1
1.014860615E1,2.252499312E-1,-6.642963737E-2,4.098021686E-1
1.016741505E1,1.183516532E-1,1.397313178E-1,3.975852132E-1
1.018622396E1,9.452861547E-2,2.753393948E-1,3.584909737E-1
1.020503281E1,-8.047912270E-2,1.527118147E-4,3.502445519E-1
1.022384172E1,-3.321481943E-1,-1.708845198E-1,3.380275965E-1
1.024265057E1,-6.421532035E-1,-2.063136548E-1,2.106659412E-1
1.026145948E1,-9.784246087E-1,-6.129088402E-1,-1.149920002E-1
1.028026833E1,-1.471683741E0,-1.723429203E0,-2.970244884E-1
1.029907724E1,-2.190116405E0,-3.106692791E0,-3.660502136E-1
1.031788609E1,-2.934433937E0,-4.317162991E0,-6.168029904E-1
1.033669500E1,-3.439909935E0,-4.849210739E0,-9.628480077E-1
1.035550385E1,-3.805196762E0,-4.588073730E0,-9.042066336E-1
1.037431276E1,-3.748082399E0,-3.827263594E0,-4.460712075E-1
1.039312162E1,-3.101805925E0,-1.905461669E0,-1.168245375E-1
1.041193052E1,-2.289379120E0,8.397622705E-1,-2.319692522E-1
1.043073938E1,-1.859342694E0,2.041604280E0,-4.008685052E-1
1.044954823E1,-1.632031202E0,2.332749367E0,-4.720322192E-1
1.046835714E1,-1.523911238E0,2.155221939E0,-3.791834414E-1
1.048716599E1,-1.664406061E0,1.586828470E0,-3.080197275E-1
1.050597490E1,-1.799174190E0,7.319477201E-1,-3.593308926E-1
1.052478375E1,-1.588050127E0,-2.542651594E-1,-3.245126009E-1
1.054359260E1,-1.177255392E0,-1.119606614E0,-2.396048307E-1
1.056240151E1,-7.853968740E-1,-1.596067548E0,-1.400367320E-1
1.058121036E1,-4.326325655E-1,-1.571328163E0,-1.969982497E-2
1.060001927E1,3.008422814E-2,-1.115636110E0,8.880192041E-2
1.061882812E1,5.007420182E-1,-5.979431272E-1,2.323510200E-1
1.063763698E1,9.536852837E-1,-1.592784226E-1,3.810923398E-1
1.065644589E1,1.460154057E0,1.880035162E0,4.418716431E-1
1.067525474E1,8.070819378E-1,4.644500732E0,4.644729793E-1
1.069406359E1,-3.871244490E-1,4.284711838E0,5.393017530E-1
1.071287250E1,-1.085781008E-1,2.261585712E0,7.601230741E-1
1.073168135E1,6.913263798E-1,1.063943267E0,6.651363373E-1
1.075049021E1,9.481876493E-1,4.871506989E-2,2.374668792E-2
1.076929906E1,3.214583695E-1,-8.471688032E-1,-6.632274389E-1
1.078810797E1,-2.884726226E-1,-9.870527983E-1,-8.360971808E-1
1.080691682E1,-1.068982761E-3,-2.826695740E-1,-7.368345261E-1
1.082572568E1,1.044777870E0,-3.098522723E-1,-5.361711979E-1
1.084453453E1,1.602481484E0,-1.104030013E0,-1.708845198E-1
1.086334339E1,1.471149325E0,-1.653487206E0,1.145338640E-3
1.088215229E1,2.524326444E-1,-2.344660759E0,8.780929260E-3
1.090096115E1,-7.017107606E-1,-1.757636666E0,-4.993676394E-2
1.091977000E1,8.414421231E-2,-2.631224692E-1,-1.145338640E-2
1.093857885E1,1.268958807E0,2.188360244E-1,1.584385037E-1
1.095738771E1,2.131780624E0,-1.097997949E-1,4.766899347E-1
1.097619656E1,2.309231758E0,-3.495573401E-1,7.534037232E-1
1.099500547E1,2.008694887E0,-3.681881726E-1,7.643989921E-1
1.101381432E1,1.696857333E0,-3.129065037E-1,5.451048017E-1
1.103262318E1,1.939363718E0,1.625311852E0,1.819561273E-1
1.105143203E1,2.406661749E0,4.255391121E0,-7.742489129E-2
1.107024089E1,2.221575022E0,4.201331139E0,-2.367033064E-2
1.108904974E1,1.573466182E0,2.340079546E0,1.898971349E-1
1.110785859E1,1.120217562E0,2.524326444E-1,4.134672284E-1
1.112666745E1,9.604045749E-1,-1.062492490E0,6.153522730E-1
1.114547630E1,1.035004377E0,-1.552086473E0,7.036196589E-1
1.116428516E1,1.363334775E0,-1.563692570E0,5.814502239E-1
1.118309401E1,1.632107496E0,-9.210813046E-1,4.394282401E-1
1.120190292E1,1.573771596E0,3.336753249E-1,4.107184112E-1
1.122071177E1,1.312634349E0,1.453052878E0,3.917821646E-1
1.123952062E1,9.258917570E-1,1.887976170E0,3.694862425E-1
1.125832948E1,5.496098399E-1,1.670514584E0,2.995442152E-1
1.127713833E1,3.468085229E-1,1.224290609E0,1.853157878E-1
1.129594719E1,2.899997234E-1,8.382351398E-1,2.060845941E-1
1.131475604E1,3.727695346E-1,8.006680608E-1,4.424824715E-1
1.133356490E1,3.339807391E-1,8.364025950E-1,5.851153135E-1
1.135237370E1,7.986827940E-2,6.094728708E-1,5.704549551E-1
1.137118255E1,-2.918322682E-1,3.352024257E-1,5.096756816E-1
1.138999141E1,-6.675033569E-1,2.515163720E-1,3.099286258E-1
1.140880026E1,-1.207186937E0,-2.615953386E-1,1.010188684E-1
1.142760912E1,-1.852623343E0,-1.794592857E0,-8.704573847E-3
1.144641797E1,-2.370316505E0,-3.516952991E0,-3.510844707E-1
1.146522682E1,-2.772253990E0,-4.988789558E0,-9.567395449E-1
1.148403568E1,-3.240773678E0,-5.928654194E0,-1.262468576E0
1.150284453E1,-3.785344124E0,-6.101218700E0,-1.061194420E0
1.152165339E1,-3.993032217E0,-5.360490322E0,-6.470399499E-1
1.154046224E1,-3.612779856E0,-2.914581299E0,-4.760027230E-1
1.155927104E1,-2.784470797E0,7.392778993E-1,-6.525375843E-1
1.157807990E1,-2.250590324E0,2.395361185E0,-5.902311802E-1
1.159688875E1,-1.840101004E0,2.973222733E0,-4.081986845E-1
1.161569760E1,-1.536738992E0,3.041637659E0,-2.026485801E-1
1.163450646E1,-1.275907159E0,2.394750357E0,-3.313846514E-2
1.165331531E1,-1.078298092E0,1.039814711E0,-1.328592747E-2
1.167212417E1,-9.090934396E-1,-6.248204112E-1,-1.837123185E-1
1.169093297E1,-6.464291215E-1,-2.170264006E0,-3.196258247E-1
1.170974182E1,-3.584146202E-1,-2.960394859E0,-3.831539452E-1
1.172855068E1,-1.189625040E-1,-2.623207092E0,-3.495573401E-1
1.174735953E1,1.559187621E-1,-1.418311000E0,-2.075353563E-1
1.176616833E1,5.331169367E-1,6.032116711E-2,-3.955236077E-2
1.178497719E1,1.006294489E0,1.465575337E0,6.009209901E-2
1.180378604E1,1.444272041E0,3.079204559E0,1.504974961E-1
1.182259490E1,8.425110579E-1,4.273411274E0,3.157316744E-1
1.184140370E1,-3.746020794E-1,2.810431957E0,4.940990806E-1
1.186021255E1,-1.372879148E-1,7.276718020E-1,7.595121861E-1
1.187902141E1,6.821636558E-1,6.552863717E-1,6.348993778E-1
1.189783026E1,8.849649429E-1,1.160457134E0,3.588727675E-3
1.191663906E1,2.228065431E-1,1.032484531E0,-6.430694461E-1
1.193544792E1,-3.626905680E-1,5.300627351E-1,-7.774558663E-1
1.195425672E1,2.924431264E-1,1.910424829E-1,-5.288410187E-1
1.197306557E1,8.681666851E-1,-6.129088402E-1,-2.386885732E-1
1.199187443E1,2.573194206E-1,-1.473287225E0,2.680092305E-2
1.201068323E1,-5.676298141E-1,-1.739005804E0,2.191414498E-2
1.202949208E1,1.236965694E-2,-9.427663684E-1,-1.201841980E-1
1.204830094E1,1.004156590E0,-9.697200358E-2,1.349208951E-1
1.206710974E1,1.830327511E0,1.815743446E-1,5.603759885E-1
1.208591859E1,2.225851059E0,-1.754658818E-1,7.989118695E-1
1.210472745E1,2.173928976E0,-5.591543317E-1,7.210288048E-1
1.212353625E1,1.991591096E0,-8.233457208E-1,4.553102851E-1
1.214234510E1,1.941501617E0,-9.736141562E-1,2.748049200E-1
1.216115391E1,2.159879446E0,-3.095468581E-1,1.254527569E-1
1.217996276E1,2.905724049E0,2.986966848E0,5.726693198E-3
1.219877162E1,2.851358652E0,4.993676186E0,-4.734066315E-3
1.221758042E1,1.908821344E0,4.173537731E0,-1.023169141E-2
1.223638927E1,7.017107606E-1,1.783521295E0,1.654632539E-1
1.225519807E1,1.687465608E-1,-1.983726472E-1,5.490753055E-1
1.227400693E1,3.828485310E-1,-1.253076792E0,8.438091278E-1
1.229281573E1,1.065852165E0,-1.346841812E0,8.270108104E-1
1.231162458E1,1.963492155E0,-7.573742270E-1,6.886539459E-1
1.233043339E1,2.557235718E0,1.727170646E-1,6.489488482E-1
1.234924224E1,2.202333450E0,7.817317843E-1,5.463265181E-1
1.236805104E1,1.217647672E0,1.138466597E0,2.271588296E-1
1.238685990E1,-7.284353673E-2,1.253611326E0,3.474193811E-2
1.240566870E1,-8.009734750E-1,1.261552334E0,2.580066025E-1
1.242447755E1,-6.390989423E-1,1.251473308E0,5.652627945E-1
1.244328635E1,-3.159607351E-1,7.114843726E-1,8.251782656E-1
1.246209521E1,-3.520007432E-1,-1.647760421E-1,7.185854316E-1
1.248090401E1,-5.926745534E-1,-9.293277264E-1,1.697391868E-1
1.249971287E1,-1.082268596E0,-2.045040369E0,-6.693359017E-1
1.251852167E1,-2.048399925E0,-3.467474461E0,-1.258803487E0
1.253733052E1,-3.112801313E0,-4.511717796E0,-1.530935884E0
1.255613932E1,-3.972874165E0,-4.965882778E0,-1.758782029E0
1.257494812E1,-4.532486439E0,-4.581659794E0,-1.773136854E0
1.259375698E1,-4.584103107E0,-3.516036749E0,-1.451525807E0
1.261256578E1,-4.056254864E0,-2.324197531E0,-9.622371197E-1
1.263137464E1,-3.149452209E0,-9.833877087E-1,-5.416688323E-1
1.265018344E1,-2.118036509E0,-2.591519356E-1,-1.901262105E-1
1.266899224E1,-1.276823521E0,-1.664558798E-2,2.424300015E-1
1.268780109E1,-8.641961813E-1,-3.466558084E-2,6.303179860E-1
1.270660990E1,-1.066386580E0,-3.874298632E-1,8.120450974E-1
1.272541870E1,-1.693421364E0,-7.372162938E-1,7.665369511E-1
1.274422755E1,-1.934476972E0,-7.002600431E-1,7.222505212E-1
1.276303635E1,-1.781459689E0,-1.794363856E-1,7.543200254E-1
1.278184516E1,-1.446028233E0,5.639647245E-1,7.769213319E-1
1.280065401E1,-8.577822447E-1,1.131441832E0,7.259156108E-1
1.281946281E1,-1.504211426E-1,1.377002478E0,6.455891728E-1
1.283827162E1,7.786775231E-1,9.494093657E-1,3.633777499E-1
1.285708047E1,1.445493698E0,6.821636558E-1,1.318666488E-1
1.287588927E1,2.142164946E0,1.653105378E0,1.202605516E-1
1.289469807E1,5.413633585E-1,6.598982811E0,2.021140903E-1
1.291350688E1,-1.232231617E0,5.594444752E0,1.120141149E-1
1.293231573E1,4.311054647E-1,2.455224276E0,4.970769584E-2
1.295112453E1,1.679448128E0,-1.696628332E-1,-7.742489129E-2
1.296993333E1,8.871029615E-1,-1.916151524E0,-2.667875290E-1
1.298874214E1,-4.750864506E-1,-2.390474319E0,-3.636068404E-1
1.300755099E1,-3.691044450E-1,-1.422892332E0,-5.325061083E-1
1.302635979E1,7.884510756E-1,-5.451048017E-1,-5.893148780E-1
1.304516859E1,1.491307259E0,7.528692484E-2,-1.122431830E-1
1.306397740E1,1.268042564E0,9.720106721E-1,4.470638335E-1
1.308278620E1,2.313583940E-1,1.785659194E0,6.049678326E-1
1.310159505E1,-4.433223903E-1,2.359626532E0,5.096756816E-1
1.312040385E1,-7.803573459E-2,2.225240231E0,5.744255185E-1
1.313921266E1,8.727480173E-1,1.495506763E0,8.041040897E-1
1.315802146E1,1.881638646E0,6.131379604E-1,1.063408732E0
1.317683026E1,2.395972013E0,2.215848416E-1,1.189854145E0
1.319563912E1,2.452780724E0,-5.650337320E-3,1.194740891E0
1.321444792E1,2.392307043E0,-4.283566475E-1,1.056689382E0
1.323325672E1,2.604881763E0,-6.368082762E-2,5.811448097E-1
1.325206552E1,3.081342697E0,3.171747923E0,2.686964273E-1
1.327087432E1,2.572506905E0,4.591662407E0,1.636307091E-1
1.328968313E1,1.158395529E0,3.190073490E0,-7.467607409E-2
1.330849193E1,2.166980654E-1,1.488482118E0,-8.231166750E-2
1.332730073E1,1.128540337E-1,4.653128982E-1,3.664320111E-1
1.334610958E1,5.993938446E-1,-3.374931216E-2,7.744779587E-1
1.336491839E1,1.371275783E0,-1.339282542E-1,8.080745935E-1
1.338372719E1,2.005335093E0,-9.605573118E-2,6.119925976E-1
1.340253599E1,2.193476200E0,3.222219273E-2,5.661790371E-1
1.342134479E1,1.825440645E0,6.583406329E-1,5.142570138E-1
1.344015359E1,6.348230243E-1,1.623784781E0,3.129828572E-1
1.345896240E1,-6.522321701E-1,1.762447000E0,2.564795017E-1
1.347777120E1,-8.791618943E-1,1.431367874E0,4.412607849E-1
1.349658000E1,-2.643441558E-1,7.994463444E-1,5.591543317E-1
1.351538880E1,2.893888950E-1,1.653869003E-1,4.721085727E-1
1.353419760E1,2.072299272E-1,-1.284306347E-1,3.080960810E-1
1.355300641E1,-3.055763543E-1,-3.877353072E-1,3.626905754E-2
1.357181521E1,-1.046534061E0,-1.054856896E0,-4.158342779E-1
1.359062401E1,-2.030990839E0,-2.180648327E0,-7.142331600E-1
1.360943281E1,-3.095392227E0,-3.365157604E0,-8.101361990E-1
1.362824162E1,-3.610641718E0,-4.089011669E0,-1.026070714E0
1.364705042E1,-3.826576233E0,-4.177584171E0,-1.208103180E0
1.366585922E1,-3.968292952E0,-3.874298811E0,-1.083490372E0
1.368466802E1,-3.671115637E0,-3.396310806E0,-7.169819474E-1
1.370347682E1,-2.863881111E0,-2.155603647E0,-4.689779878E-1
1.372228563E1,-2.013581514E0,-1.374406274E-3,-4.613423944E-1
1.374109443E1,-1.563616276E0,1.323553324E0,-3.449759781E-1
1.375990323E1,-1.346765518E0,1.658603072E0,-4.688252881E-2
1.377871203E1,-1.482679009E0,1.546207070E0,9.582666308E-2
1.379752083E1,-1.732286453E0,7.875348330E-1,3.993413970E-2
1.381632964E1,-1.653410792E0,-4.014793634E-1,-1.058292910E-1
1.383513844E1,-1.260941505E0,-1.336457491E0,-1.861557066E-1
1.385394719E1,-7.795938253E-1,-1.505051255E0,-2.072299272E-1
1.387275599E1,-3.965925872E-1,-8.844304681E-1,-1.134648770E-1
1.389156479E1,-7.467607409E-2,-2.764083818E-2,6.681142002E-2
1.391037359E1,2.582356930E-1,5.028799772E-1,1.914242655E-1
1.392918240E1,5.239542127E-1,6.296308041E-1,2.280751020E-1
1.394799120E1,6.368082762E-2,1.066997409E0,1.306449622E-1
1.396680000E1,-1.348903418E0,3.985702038E0,-2.240282297E-1
1.398560875E1,-1.401436329E0,4.542183876E0,-7.040014863E-2
1.400441755E1,-1.873773932E-1,1.270104170E0,1.288124174E-1
1.402322635E1,1.305304289E0,-1.410675406E0,-8.842013776E-2
1.404203516E1,1.425946593E0,-1.940585375E0,-3.654393852E-1
1.406084396E1,2.814478874E-1,-1.202987313E0,-4.616478086E-1
1.407965276E1,-7.127060294E-1,-1.847812906E-2,-5.031854510E-1
1.409846151E1,1.424801201E-1,1.000415087E0,-3.831539452E-1
1.411727031E1,1.676088572E0,1.016907930E0,1.184280142E-1
1.413607912E1,2.191032648E0,7.511894107E-1,8.062420487E-1
1.415488792E1,1.167558193E0,1.375933439E-1,1.108000517E0
1.417369667E1,-9.707890153E-1,-3.290939629E-1,8.221240640E-1
1.419250547E1,-8.590039611E-1,6.717792749E-1,4.021665752E-1
1.421131427E1,7.895200700E-2,1.392884493E0,2.491493225E-1
1.423012307E1,1.193519235E0,1.391662717E0,3.404709995E-1
1.424893182E1,2.036793947E0,9.936957955E-1,7.607339025E-1
1.426774062E1,2.554181576E0,4.491254389E-1,1.069822669E0
1.428654943E1,2.635729551E0,-5.115845799E-2,1.155646682E0
1.430535823E1,2.443312645E0,-6.306234598E-1,1.049970031E0
1.432416698E1,2.422238350E0,9.422318637E-2,7.686749101E-1
1.434297578E1,2.476603746E0,3.547419071E0,4.635567069E-1
1.436178458E1,1.860869765E0,4.511335850E0,1.935622245E-1
1.438059339E1,1.270791411E0,2.898088455E0,2.069245093E-2
1.439940214E1,9.591829181E-1,9.368869662E-1,1.718771458E-1
1.441821094E1,9.112313986E-1,-4.598152637E-1,4.449258745E-1
1.443701974E1,1.046915889E0,-1.201460242E0,6.009973288E-1
1.445582849E1,1.284535408E0,-1.410369992E0,6.431457996E-1
1.447463729E1,1.509632587E0,-9.018396139E-1,6.342885494E-1
1.449344604E1,1.723123789E0,4.993676394E-2,5.848098993E-1
1.451225484E1,1.835825086E0,7.765395641E-1,5.441885591E-1
1.453106365E1,1.605230212E0,1.163511276E0,4.931828082E-1
1.454987240E1,1.050580978E0,1.205354333E0,4.174377322E-1
1.456868120E1,3.407000601E-1,1.109756708E0,4.403445125E-1
1.458749000E1,-2.002051920E-1,8.284615874E-1,3.795652092E-1
1.460629875E1,-3.767400384E-1,4.808894992E-1,2.693072855E-1
1.462510755E1,-3.083251417E-1,4.622586668E-1,1.398076713E-1
1.464391630E1,-4.161396921E-1,7.105680704E-1,4.023956135E-2
1.466272510E1,-7.963921428E-1,8.174663186E-1,-5.757235363E-2
1.468153391E1,-1.321109891E0,2.249445021E-1,-1.614163816E-1
1.470034266E1,-2.169653177E0,-1.200543880E0,-3.064926267E-1
1.471915146E1,-3.507408619E0,-2.847999096E0,-4.848600030E-1
1.473796021E1,-3.934085369E0,-4.275625229E0,-9.313893318E-1
1.475676901E1,-4.141162872E0,-4.561807156E0,-1.110062122E0
1.477557781E1,-4.165902138E0,-4.417953014E0,-8.150229454E-1
1.479438656E1,-3.587734938E0,-3.351413488E0,-2.713688910E-1
1.481319536E1,-2.413991928E0,3.168770075E-1,-5.696150661E-2
1.483200412E1,-1.733202696E0,2.523639202E0,-1.308740228E-1
1.485081292E1,-1.458855987E0,3.077677488E0,-2.570139766E-1
1.486962167E1,-1.365090966E0,2.880068541E0,-3.553603888E-1
1.488843047E1,-1.575527787E0,2.294265985E0,-4.836383164E-1
1.490723922E1,-1.816277981E0,1.198940516E0,-6.433748603E-1
1.492604802E1,-1.608819008E0,-3.687990308E-1,-6.956022978E-1
1.494485677E1,-1.208714008E0,-1.467484236E0,-6.891884208E-1
1.496366557E1,-5.825955868E-1,-2.224018574E0,-5.990884304E-1
1.498247432E1,1.375933439E-1,-2.601522207E0,-4.647020400E-1
1.500128312E1,5.254813433E-1,-2.141248703E0,-2.579302490E-1
1.502009188E1,5.218162537E-1,-1.062187076E0,8.116632700E-2
1.503890068E1,2.738122940E-1,3.587200642E-1,4.131618142E-1
1.505770943E1,5.757235363E-2,1.845216870E0,5.829773545E-1
1.507651823E1,3.313846514E-2,2.965587139E0,6.016082168E-1
1.509532698E1,2.664821148E-1,3.376076460E0,7.769213319E-1
1.511413578E1,4.338542521E-1,2.227988958E0,1.186189055E0
1.513294453E1,6.913263798E-1,1.266439080E0,1.318742871E0
1.515175333E1,9.891907573E-1,1.333937645E0,1.002934813E0
1.517056208E1,8.128849864E-1,1.570641041E0,1.092653051E-1
1.518937089E1,3.761292100E-1,5.734328628E-1,-5.129590034E-1
1.520817964E1,2.069245130E-1,-2.912214398E-1,-5.511369109E-1
1.522698844E1,5.636593103E-1,-6.965949535E-1,-5.914528370E-1
1.524579719E1,1.071960568E0,-1.512076020E0,-5.606050491E-1
1.526460594E1,7.133168578E-1,-2.244481802E0,-5.725166202E-1
1.528341474E1,-9.579612017E-1,-2.335498095E0,-4.698942602E-1
1.530222349E1,-3.095468581E-1,-1.096699953E0,-6.226060390E-1
1.532103229E1,9.882745147E-1,-3.388675153E-1,-1.601946950E-1
1.533984104E1,1.781154275E0,-3.764346242E-1,5.533512831E-1
1.535864984E1,1.980290413E0,-8.031877875E-1,9.021450281E-1
1.537745859E1,1.862091541E0,-1.294309020E0,8.453362584E-1
1.539626734E1,1.670590878E0,-1.474814296E0,5.496861935E-1
1.541507615E1,1.709379673E0,-1.312023520E0,3.001550734E-1
1.543388490E1,1.898131490E0,-1.035615206E0,1.764585078E-1
1.545269365E1,2.384366035E0,1.968455315E-1,9.155073017E-2
1.547150245E1,2.967419624E0,2.599384069E0,-1.572931744E-2
1.549031120E1,2.601216793E0,3.404480934E0,-3.466558084E-2
1.550912000E1,1.548115969E0,2.613739014E0,-1.756185852E-2
1.552792875E1,5.844281316E-1,1.283848286E0,3.022930324E-1
1.554673755E1,2.283041626E-1,2.677038014E-1,7.527928948E-1
1.556554630E1,4.915793240E-1,-3.214583695E-1,9.314656854E-1
1.558435505E1,1.373719096E0,-3.425326049E-1,8.871793151E-1
1.560316385E1,2.163239241E0,-1.006370857E-1,7.784484625E-1
1.562197260E1,2.091159344E0,-8.139539510E-2,6.706339121E-1
1.564078135E1,1.711823106E0,-5.757235363E-2,4.638621509E-1
1.565959016E1,1.191992044E0,6.461237073E-1,1.996707022E-1
1.567839891E1,2.289150059E-1,1.400520086E0,2.607554197E-1
1.569720766E1,-4.616478086E-1,1.386165142E0,5.057051778E-1
1.571601646E1,-4.592044353E-1,1.072189689E0,6.956786513E-1
1.573482521E1,-3.868190348E-1,5.236487985E-1,7.350783348E-1
1.575363396E1,-6.372663975E-1,-1.159082651E-1,5.264739990E-1
1.577244276E1,-8.538117409E-1,-4.701996744E-1,-6.673506647E-2
1.579125151E1,-1.366618037E0,-1.469011307E0,-5.777087808E-1
1.581006026E1,-2.294265985E0,-3.394478321E0,-6.980457306E-1
1.582886906E1,-3.065766096E0,-5.161048412E0,-9.381086826E-1
1.584767781E1,-3.796033859E0,-6.034941673E0,-1.246586561E0
1.586648656E1,-4.531875610E0,-6.045021057E0,-1.241088867E0
1.588529537E1,-4.681228161E0,-5.481743336E0,-9.906415343E-1
1.590410412E1,-4.163764000E0,-3.863914251E0,-7.838697433E-1
1.592291286E1,-3.013233185E0,-6.074112654E-1,-8.666395545E-1
1.594172167E1,-1.898436904E0,2.012588978E0,-7.847860456E-1
1.596053042E1,-1.152210593E0,2.791800976E0,-3.968980014E-1
1.597933917E1,-7.866185308E-1,2.703839064E0,-1.061347127E-1
1.599814792E1,-6.739172339E-1,2.125595808E0,-4.535540938E-2
1.601695672E1,-8.449544907E-1,8.324320912E-1,-1.721062213E-1
1.603576547E1,-1.014770031E0,-1.093951106E0,-4.521796703E-1
1.605457422E1,-7.976137996E-1,-2.720637321E0,-6.146650314E-1
1.607338302E1,-4.436278343E-1,-3.377068996E0,-6.088619828E-1
1.609219177E1,3.130592033E-2,-2.900837183E0,-4.701996744E-1
1.611100052E1,5.829010010E-1,-1.500775337E0,-2.420482337E-1
1.612980927E1,9.852202535E-1,-1.511846948E-2,5.726693198E-3
1.614861807E1,1.155341268E0,9.289459586E-1,2.005869746E-1
1.616742682E1,9.873582125E-1,1.454580069E0,2.433462739E-1
1.618623557E1,-7.059867382E-1,3.692800760E0,1.892862916E-1
1.620504432E1,-1.635390878E0,5.054760933E0,2.021140903E-1
1.622385312E1,-6.207735538E-1,1.993041873E0,5.625139475E-1
1.624266188E1,8.360971808E-1,5.380037427E-1,4.751628041E-1
1.626147062E1,1.585377693E0,2.557922900E-1,-2.825168520E-2
1.628027938E1,7.157602906E-1,1.519482583E-1,-5.984776020E-1
1.629908818E1,-8.510629535E-1,-2.209739983E-1,-8.730534315E-1
1.631789693E1,-5.706840754E-1,-4.488200247E-1,-5.887040496E-1
1.633670568E1,7.456917763E-1,-5.667899251E-1,-1.452289373E-1
1.635551443E1,1.293392658E0,-8.175426722E-1,1.169008911E-1
1.637432318E1,7.206470370E-1,-9.262735248E-1,7.627955079E-2
1.639313198E1,-2.121167034E-1,-7.213342786E-1,6.650599837E-2
1.641194073E1,4.027010500E-1,-1.305686086E-1,1.288124174E-1
1.643074948E1,1.277510643E0,3.144336343E-1,3.145099878E-1
1.644955823E1,1.747252226E0,6.229115129E-1,3.926984370E-1
1.646836698E1,1.877057314E0,7.411104441E-1,4.168269038E-1
1.648717578E1,1.857510209E0,5.874823332E-1,3.551313281E-1
1.650598453E1,1.776267529E0,4.023956358E-1,2.494547516E-1
1.652479328E1,1.866062045E0,4.085040987E-1,2.039466351E-1
1.654360203E1,2.265861511E0,2.093831778E0,2.845784724E-1
1.656241078E1,2.494623899E0,4.188503265E0,2.650313675E-1
1.658121953E1,2.307093859E0,4.175981045E0,1.199551299E-1
1.660002833E1,1.728926778E0,2.866019011E0,8.116632700E-2
1.661883708E1,1.039891124E0,1.309809208E0,2.583120465E-1
1.663764583E1,5.935907960E-1,1.324011385E-1,6.361210346E-1
1.665645458E1,4.973823726E-1,-2.933593988E-1,9.332982302E-1
1.667526333E1,8.244910836E-1,-2.438807636E-1,9.598701000E-1
1.669407208E1,1.414035082E0,3.797942698E-1,8.752677441E-1
1.671288083E1,1.720680356E0,1.152516007E0,8.141830564E-1
1.673168964E1,1.430222511E0,1.467102408E0,7.564579844E-1
1.675049839E1,8.724426031E-1,1.513526797E0,6.345939636E-1
1.676930714E1,3.617742956E-1,1.195275426E0,4.052208066E-1
1.678811589E1,1.360662282E-1,6.519267559E-1,3.138991296E-1
1.680692464E1,2.035648525E-1,3.965925872E-1,3.233672678E-1
1.682573339E1,1.360662282E-1,2.127275616E-1,2.531198263E-1
1.684454214E1,-2.441861928E-1,1.760767251E-1,1.572168171E-1
1.686335089E1,-6.946860552E-1,1.861557066E-1,-4.718795046E-2
1.688215964E1,-1.098150611E0,-4.839437306E-1,-3.410054743E-1
1.690096844E1,-1.628366113E0,-1.716404438E0,-5.150969625E-1
1.691977719E1,-2.448199511E0,-3.066682339E0,-6.620057225E-1
1.693858594E1,-3.352253437E0,-4.103672028E0,-9.090934396E-1
1.695739469E1,-3.892853260E0,-4.380996704E0,-9.347490072E-1
1.697620344E1,-4.087102890E0,-4.073740482E0,-6.855233312E-1
1.699501219E1,-3.650346756E0,-2.725218773E0,-3.516952991E-1
1.701382094E1,-2.738046408E0,-1.369825006E-1,-3.532224298E-1
1.703262969E1,-2.205082178E0,1.409377337E0,-4.118637741E-1
1.705143844E1,-1.954024076E0,1.719687700E0,-3.077143133E-1
1.707024719E1,-1.675706744E0,1.639361382E0,-2.020377368E-1
1.708905594E1,-1.602405071E0,1.187334418E0,-2.356343269E-1
1.710786469E1,-1.704187512E0,5.169295073E-1,-2.796153426E-1
1.712667344E1,-1.658908486E0,-2.942756712E-1,-3.715478480E-1
1.714548219E1,-1.320499063E0,-9.812497497E-1,-4.472928941E-1
1.716429094E1,-8.373188972E-1,-1.289727688E0,-4.344651103E-1
1.718309969E1,-3.831539452E-1,-1.254909396E0,-3.599417508E-1
1.720190844E1,2.550287358E-2,-9.342145324E-1,-2.014268786E-1
1.722071719E1,2.732014358E-1,-1.824906170E-1,1.763821393E-2
1.723952599E1,4.518742561E-1,3.898732662E-1,1.816506982E-1
1.725833469E1,5.480827093E-1,7.078192830E-1,2.879381180E-1
1.727714349E1,4.479037523E-1,2.479047298E0,3.591018319E-1
1.729595219E1,6.219952106E-1,4.676570415E0,6.480326056E-1
1.731476094E1,-2.786990702E-1,3.293917418E0,8.050203323E-1
1.733356969E1,1.421747059E-1,1.876064658E0,5.270848274E-1
1.735237844E1,1.016984344E0,9.289459586E-1,9.399411827E-2
1.737118719E1,1.003240228E0,-6.452837586E-1,-3.706315756E-1
1.738999594E1,-8.047912270E-2,-1.352950335E0,-8.739697337E-1
1.740880469E1,-3.364241421E-1,-2.203631550E-1,-7.435538173E-1
1.742761344E1,8.251019120E-1,4.891359508E-1,-2.139492482E-1
1.744642219E1,1.297057748E0,-7.467607409E-2,8.910734206E-2
1.746523094E1,-3.309265077E-1,-7.372162938E-1,2.457896620E-1
1.748403969E1,-1.119224906E0,-3.831539452E-1,1.627144367E-1
1.750284844E1,5.318952799E-1,6.247440577E-1,1.275143679E-2
1.752165719E1,1.690137982E0,6.195518374E-1,4.296546876E-1
1.754046594E1,2.154992819E0,1.250709742E-1,8.532772660E-1
1.755927469E1,2.173928976E0,-5.298336148E-1,1.069517136E0
1.757808344E1,1.937225699E0,-1.199016809E0,9.665894508E-1
1.759689219E1,1.769548178E0,-1.724040031E0,6.953732371E-1
1.761570094E1,1.806504369E0,-1.995256186E0,4.482855201E-1
1.763450969E1,2.142164946E0,-1.066462994E0,2.702235579E-1
1.765331844E1,2.894118071E0,2.463165283E0,7.872293890E-2
1.767212714E1,2.716972351E0,3.827797890E0,9.391776286E-3
1.769093589E1,1.734119058E0,2.990937233E0,-3.863608837E-2
1.770974464E1,6.891884208E-1,1.556286097E0,6.345175952E-2
1.772855339E1,2.683146596E-1,5.728220344E-1,4.275167286E-1
1.774736214E1,5.596888065E-1,-1.409530044E-1,7.405759692E-1
1.776617089E1,1.232918859E0,-2.560977042E-1,8.404494524E-1
1.778497964E1,1.990674853E0,3.008422814E-2,8.102125525E-1
1.780378839E1,2.305261135E0,2.005106062E-1,7.833352685E-1
1.782259708E1,2.036488295E0,1.766875684E-1,6.501705647E-1
1.784140583E1,1.178858876E0,3.138227761E-1,4.189648628E-1
1.786021458E1,-2.458660305E-2,6.296308041E-1,2.830513418E-1
1.787902333E1,-5.737382770E-1,8.492304087E-1,2.702235579E-1
1.789783208E1,-3.791834414E-1,6.934643388E-1,2.512872815E-1
1.791664083E1,-8.139539510E-2,2.680092454E-1,2.314347625E-1
1.793544958E1,-1.791309565E-1,9.513945878E-2,1.471378356E-1
1.795425828E1,-5.089884996E-1,1.873773932E-1,-7.040014863E-2
1.797306703E1,-1.042563558E0,-4.662291706E-1,-2.228065431E-1
1.799187578E1,-1.865145802E0,-1.946999311E0,-3.782671690E-1
1.801068453E1,-2.920384407E0,-3.491602898E0,-6.449019909E-1
1.802949328E1,-3.694327831E0,-4.763081551E0,-1.065470338E0
1.804830203E1,-4.166818142E0,-5.106683254E0,-1.217265844E0
1.806711073E1,-4.447273254E0,-4.813476562E0,-9.695672989E-1
1.808591948E1,-4.097486973E0,-3.676995039E0,-5.251759291E-1
1.810472823E1,-2.906029463E0,9.147437662E-2,-3.523061574E-1
1.812353698E1,-2.095129728E0,2.440869331E0,-2.191414535E-1
1.814234573E1,-1.693115830E0,2.842195988E0,2.405211143E-2
1.816115448E1,-1.390135646E0,2.600911379E0,2.387649268E-1
1.817996318E1,-1.297286868E0,2.003120899E0,2.867164314E-1
1.819877193E1,-1.514748454E0,9.347490072E-1,1.566059589E-1
1.821758068E1,-1.709074259E0,-1.919587553E-1,-7.650861889E-2
1.823638943E1,-1.603932142E0,-9.656731486E-1,-2.756448388E-1
1.825519818E1,-1.300035715E0,-1.341649652E0,-3.428380191E-1
1.827400688E1,-8.996253014E-1,-1.114719868E0,-2.316638231E-1
1.829281563E1,-3.345915973E-1,-7.143095136E-1,-8.597674966E-2
1.831162438E1,2.090624720E-1,-1.461452097E-1,8.819106966E-2
1.833043313E1,5.896202922E-1,3.886515796E-1,2.790808380E-1
1.834924182E1,7.334748507E-1,9.988879561E-1,4.281275868E-1
1.836805057E1,8.284615874E-1,2.449421167E0,5.640410781E-1
1.838685932E1,9.197832346E-1,3.366913795E0,7.292752862E-1
1.840566807E1,5.841227174E-1,2.065732718E0,6.239041090E-1
1.842447677E1,7.866185308E-1,5.425850749E-1,2.308239043E-1
1.844328552E1,8.061656952E-1,3.941491842E-1,-2.848075330E-1
1.846209427E1,1.635543555E-1,4.066715539E-1,-5.135698318E-1
1.848090302E1,-6.531484127E-1,-2.105895877E-1,-6.592568755E-1
1.849971172E1,-7.437065244E-2,2.814478874E-1,-8.009734750E-1
1.851852047E1,1.371886611E0,7.334748507E-1,-6.494833231E-1
1.853732922E1,1.455267191E0,-1.236965694E-2,-1.146865711E-1
1.855613797E1,-3.633013964E-1,-1.161755085E0,3.294757307E-1
1.857494667E1,-7.585195899E-1,-1.080512404E0,4.247679114E-1
1.859375542E1,4.051444530E-1,-2.512109280E-1,5.429668427E-1
1.861256417E1,1.582018018E0,-8.353336155E-2,8.352572918E-1
1.863137286E1,2.176677942E0,-5.887804031E-1,1.025841594E0
1.865018162E1,2.291517019E0,-1.001102328E0,1.002934813E0
1.866899037E1,2.153465748E0,-1.162671447E0,8.108233809E-1
1.868779912E1,2.103986979E0,-1.158395529E0,5.851153135E-1
1.870660781E1,2.281438112E0,3.107685447E-1,4.757736623E-1
1.872541656E1,2.492180347E0,3.524206877E0,4.944044948E-1
1.874422531E1,2.314118385E0,4.579751015E0,3.432198167E-1
1.876303401E1,1.823302746E0,3.909346104E0,8.360971510E-2
1.878184276E1,1.316604853E0,2.534328938E0,-1.572931744E-2
1.880065151E1,8.516737819E-1,1.059972763E0,2.671693265E-1
1.881946021E1,5.664080977E-1,-5.085303262E-2,6.370373368E-1
1.883826896E1,6.632274389E-1,-7.708128691E-1,7.405759692E-1
1.885707771E1,1.101892114E0,-9.293277264E-1,7.265264392E-1
1.887588641E1,1.648600340E0,-6.394807100E-1,6.547518969E-1
1.889469516E1,1.975709081E0,-2.087570578E-1,4.751628041E-1
1.891350391E1,1.864534855E0,2.066190839E-1,2.622825503E-1
1.893231260E1,1.489169240E0,1.183669329E0,4.695888236E-2
1.895112135E1,5.322006941E-1,1.753589749E0,1.013242900E-1
1.896993010E1,-5.260922313E-1,1.181836724E0,4.009448588E-1
1.898873880E1,-6.748335361E-1,8.159392476E-1,5.322770476E-1
1.900754755E1,-8.811471611E-2,8.449544907E-1,4.873797596E-1
1.902635625E1,2.197522968E-1,4.827220440E-1,4.110238552E-1
1.904516500E1,-5.039489828E-3,1.433963925E-1,2.244100124E-1
1.906397375E1,-4.888305068E-1,-1.145338640E-2,-5.176930502E-2
1.908278245E1,-1.174506545E0,-9.537616372E-1,-2.408265322E-1
1.910159120E1,-2.024882317E0,-2.439953089E0,-3.978142738E-1
1.912039990E1,-3.256044865E0,-3.601249933E0,-5.703786016E-1
1.913920865E1,-3.731894970E0,-4.639690399E0,-9.851438999E-1
1.915801740E1,-3.973790407E0,-5.071864605E0,-1.095096469E0
1.917682609E1,-4.171093941E0,-4.916404247E0,-8.904625773E-1
1.919563484E1,-3.834822655E0,-3.914309263E0,-5.428904891E-1
1.921444354E1,-2.871211290E0,-4.628695250E-1,-5.111264586E-1
1.923325229E1,-2.232570410E0,2.265250683E0,-5.099047422E-1
1.925206104E1,-1.853234172E0,2.969862938E0,-2.359397560E-1
1.927086974E1,-1.553842664E0,2.890758276E0,-2.519745007E-2
1.928967849E1,-1.449998736E0,2.415824652E0,1.000262424E-2
1.930848719E1,-1.612178683E0,1.452136636E0,-1.797417998E-1
1.932729594E1,-1.589882731E0,3.985778242E-2,-4.552339315E-1
1.934610469E1,-1.303700805E0,-1.234751344E0,-5.789304972E-1
1.936491339E1,-8.028060198E-1,-1.826662421E0,-5.407525301E-1
1.938372214E1,-2.878617644E-1,-1.674866796E0,-3.996468186E-1
1.940253083E1,1.531699449E-1,-1.059438229E0,-1.748550236E-1
1.942133958E1,5.670189857E-1,-3.547495604E-1,8.360971510E-2
1.944014828E1,1.002934813E0,7.773031294E-2,2.879381180E-1
1.945895703E1,1.277510643E0,9.283351302E-1,3.853682578E-1
1.947776573E1,1.038363934E0,2.454308033E0,4.730248451E-1
1.949657448E1,-4.188885093E-1,3.371189594E0,5.515187383E-1
1.951538318E1,-6.073349118E-1,2.249674082E0,4.782170355E-1
1.953419193E1,5.071559548E-1,9.356653094E-1,3.321481869E-2
1.955300063E1,7.933378816E-1,4.027010500E-1,-4.653128982E-1
1.957180938E1,6.734590977E-2,-1.537808031E-1,-5.865660906E-1
1.959061807E1,-4.952444136E-1,-5.713712573E-1,-5.456393361E-1
1.960942682E1,7.114843726E-1,-5.383855104E-1,-3.733803928E-1
1.962823552E1,1.870948792E0,-1.491612673E0,1.672194339E-2
1.964704427E1,2.063060284E0,-2.398720741E0,3.578801453E-1
1.966585297E1,1.508105516E0,-2.310758829E0,2.564795017E-1
1.968466172E1,4.347705245E-1,-1.765272260E0,-3.771981969E-2
1.970347042E1,-7.711946964E-2,-9.769738317E-1,-5.512896553E-2
1.972227917E1,5.383091569E-1,-5.573981255E-2,1.614927500E-1
1.974108786E1,1.152287006E0,4.103366435E-1,3.108448982E-1
1.975989662E1,1.595151305E0,4.598152637E-1,3.872008026E-1
1.977870531E1,1.979984999E0,3.239017725E-1,3.676536977E-1
1.979751406E1,2.195919514E0,4.161396921E-1,3.166479468E-1
1.981632276E1,2.452475309E0,2.015948772E0,2.244100124E-1
1.983513146E1,2.550821781E0,3.889798880E0,8.574768156E-2
1.985394021E1,2.113149643E0,3.872084379E0,3.443651274E-2
1.987274891E1,1.220396519E0,2.568230867E0,6.589514762E-2
1.989155766E1,5.688515306E-1,1.241088867E0,2.961845696E-1
1.991036635E1,3.623851240E-1,4.127800465E-1,5.948888659E-1
1.992917510E1,6.042806506E-1,-2.273878902E-1,6.975111961E-1
1.994798380E1,1.146789432E0,-3.788780272E-1,7.204179764E-1
1.996679250E1,1.803755641E0,-1.296523362E-1,7.042305470E-1
1.998560125E1,2.071001291E0,5.390727147E-2,5.826719403E-1
2.000440995E1,1.863924026E0,2.392994165E-1,5.298336148E-1
2.002321870E1,1.407926559E0,7.832589149E-1,4.791333079E-1
2.004202740E1,7.136223316E-1,1.476875901E0,3.050418496E-1
2.006083609E1,-1.568350345E-1,1.318055630E0,3.248943985E-1
2.007964484E1,-5.254813433E-1,8.809944391E-1,5.347204208E-1
2.009845354E1,-2.399102598E-1,6.455128193E-1,6.330668330E-1
2.011726229E1,1.070509851E-1,3.953709006E-1,5.588488579E-1
2.013607099E1,1.046075895E-1,1.663031727E-1,3.911713064E-1
2.015487969E1,-1.736333370E-1,1.006370857E-1,5.581616983E-2
2.017368844E1,-7.383615971E-1,-4.604261220E-1,-2.554868758E-1
2.019249714E1,-1.566365123E0,-1.934171438E0,-3.687990308E-1
2.021130583E1,-2.769199610E0,-3.369433403E0,-4.158342779E-1
2.023011458E1,-3.584069967E0,-4.585935593E0,-7.050704360E-1
2.024892328E1,-3.875138760E0,-5.198921204E0,-1.109145880E0
2.026773203E1,-4.092294693E0,-5.144861221E0,-1.101204872E0
2.028654073E1,-3.984174967E0,-4.621365070E0,-7.270609736E-1
2.030534943E1,-3.307356119E0,-2.797909498E0,-4.213318825E-1
2.032415812E1,-2.357794046E0,2.075353563E-1,-4.048390090E-1
2.034296688E1,-1.644553542E0,2.060235023E0,-2.619007528E-1
2.036177557E1,-1.204438090E0,2.588999748E0,-1.969982497E-2
2.038058427E1,-1.128387570E0,2.622901678E0,6.284090877E-2
2.039939302E1,-1.526354551E0,2.272886276E0,-8.261708915E-2
2.041820172E1,-1.698308110E0,1.160457134E0,-3.975088596E-1
2.043701042E1,-1.307976723E0,-3.877353072E-1,-6.503996253E-1
2.045581917E1,-8.125795722E-1,-1.246662855E0,-6.723901033E-1
2.047462787E1,-3.968980014E-1,-1.469927549E0,-5.505260825E-1
2.049343656E1,9.544488788E-2,-1.336457491E0,-3.461976945E-1
2.051224531E1,5.697677732E-1,-9.375742078E-1,-4.199574888E-2
2.053105401E1,9.937721491E-1,-4.879142344E-1,2.671693265E-1
2.054986271E1,1.214287996E0,5.117372870E-1,4.122455418E-1
2.056867141E1,1.024314523E0,2.503175735E0,3.804814816E-1
2.058748016E1,-2.916795574E-2,4.098097801E0,5.099810958E-1
2.060628885E1,-7.960866690E-1,2.793022633E0,7.338566184E-1
2.062509755E1,2.429644912E-1,1.133274436E0,6.434512138E-1
2.064390625E1,8.980981708E-1,3.132119179E-1,9.391776286E-3
2.066271500E1,3.800997138E-1,2.796153426E-1,-5.996993184E-1
2.068152370E1,-4.763081372E-1,4.558447599E-1,-8.730534315E-1
2.070033240E1,4.506525695E-1,3.742966652E-1,-6.552863717E-1
2.071914109E1,1.900574923E0,-1.186189055E0,-2.603736520E-1
2.073794979E1,2.119258165E0,-2.559984446E0,8.360971510E-2
2.075675854E1,1.058827400E0,-3.074317932E0,1.193442866E-1
2.077556724E1,-6.406260729E-1,-2.839141607E0,8.513683826E-2
2.079437594E1,-3.678827584E-1,-1.746641397E0,-1.068982761E-3
2.081318464E1,8.519791961E-1,-3.889569938E-1,1.303395331E-1
2.083199333E1,1.619279742E0,2.112004459E-1,2.225774676E-1
2.085080208E1,1.915846109E0,4.457657933E-1,3.270323575E-1
2.086961078E1,2.019995451E0,6.073349118E-1,3.358896375E-1
2.088841948E1,2.013276100E0,6.678087711E-1,2.784699798E-1
2.090722818E1,1.930811882E0,7.542436719E-1,2.341835648E-1
2.092603688E1,1.919205785E0,1.094485521E0,1.294232607E-1
2.094484563E1,2.309842587E0,2.854412794E0,1.324774921E-1
2.096365432E1,2.390168905E0,4.365649223E0,1.905079931E-1
2.098246302E1,1.599121809E0,3.683638096E0,1.101815775E-1
2.100127172E1,5.138752460E-1,1.825364351E0,1.984490007E-1
2.102008042E1,1.145338640E-2,3.037438095E-1,4.485909641E-1
2.103888912E1,2.954973578E-1,-4.708105326E-1,6.883485317E-1
2.105769781E1,1.163282275E0,-6.098546386E-1,8.071582913E-1
2.107650656E1,1.956772804E0,-3.636068404E-1,7.057576776E-1
2.109531526E1,1.995256186E0,-2.764083818E-2,5.961105824E-1
2.111412396E1,1.830938339E0,4.692834020E-1,5.044834614E-1
2.113293266E1,1.185578227E0,1.351652265E0,4.311818182E-1
2.115174135E1,-9.025268257E-2,1.605764747E0,4.235462248E-1
2.117055005E1,-8.284615874E-1,1.187028885E0,4.739411175E-1
2.118935875E1,-5.212054253E-1,7.099572420E-1,5.276956558E-1
2.120816745E1,1.003316641E-1,2.166980654E-1,5.273902416E-1
2.122697615E1,2.344126403E-1,-3.785725832E-1,3.832302988E-1
2.124578484E1,-9.330692142E-2,-3.797942698E-1,1.159846261E-1
2.126459359E1,-7.994463444E-1,-5.964159966E-1,-1.953184158E-1
2.128340229E1,-1.736867785E0,-2.073750019E0,-4.259132445E-1
2.130221099E1,-2.856245518E0,-3.710591793E0,-5.767925382E-1
2.132101969E1,-3.613696098E0,-4.965882778E0,-8.467870355E-1
2.133982839E1,-3.915149212E0,-5.341248512E0,-1.066997409E0
2.135863708E1,-4.033653736E0,-4.852570534E0,-9.332218766E-1
2.137744578E1,-3.718761683E0,-3.850475788E0,-5.774033666E-1
2.139625448E1,-2.882817268E0,-1.091507673E0,-3.684936166E-1
2.141506318E1,-2.142775774E0,1.451831222E0,-2.160872221E-1
2.143387188E1,-1.729537606E0,2.324502945E0,-1.328592747E-2
2.145268057E1,-1.445111871E0,2.342522860E0,6.681142002E-2
2.147148927E1,-1.315306902E0,2.075200796E0,-5.238015205E-2
2.149029797E1,-1.364480019E0,1.451831222E0,-3.009949923E-1
2.150910667E1,-1.429840684E0,2.860292196E-1,-6.503996253E-1
2.152791537E1,-1.242616057E0,-1.017595172E0,-9.020686746E-1
2.154672406E1,-9.246700406E-1,-1.724040031E0,-9.329164624E-1
2.156553276E1,-5.599942207E-1,-1.874003053E0,-7.698202729E-1
2.158434146E1,-1.122431830E-1,-1.638521433E0,-4.915793240E-1
2.160315016E1,3.119902313E-1,-8.532772660E-1,-1.940967143E-1
2.162195885E1,6.522321701E-1,2.747285664E-1,7.811209559E-2
2.164076755E1,9.463551044E-1,9.943066239E-1,3.670428395E-1
2.165957625E1,1.233835101E0,1.344322085E0,5.878641605E-1
2.167838495E1,1.245441198E0,1.946312070E0,7.983010411E-1
2.169719365E1,4.326325655E-1,2.512338400E0,8.520555496E-1
2.171600234E1,-1.809635013E-1,2.672380447E0,6.578061581E-1
2.173481104E1,3.968980014E-1,2.425598145E0,5.399126410E-1
2.175361974E1,7.203416228E-1,1.492758036E0,1.425564736E-1
2.177242844E1,2.667875290E-1,2.026485801E-1,-6.494833231E-1
2.179123714E1,-3.403946459E-1,-1.048442960E0,-1.141215444E0
2.181004583E1,5.972558856E-1,-1.448853374E0,-8.260182142E-1
2.182885453E1,1.504135013E0,-2.010527372E0,-2.344126403E-1
2.184766323E1,1.058827400E0,-2.833644152E0,1.049893722E-1
2.186647193E1,-9.387195110E-1,-2.954897165E0,4.415661991E-1
2.188528057E1,-1.327065676E-1,-1.195351720E0,2.729723752E-1
2.190408927E1,1.176110029E0,-2.367033064E-2,2.946574390E-1
2.192289797E1,1.800090551E0,2.121167034E-1,3.566584289E-1
2.194170667E1,1.957078218E0,6.566607859E-3,3.902550340E-1
2.196051537E1,1.918594837E0,-3.666610718E-1,4.794387519E-1
2.197932406E1,1.693803072E0,-4.475983381E-1,5.579326153E-1
2.199813276E1,1.526125550E0,-1.495048702E-1,5.060105920E-1
2.201694146E1,1.496499419E0,2.365505993E-1,3.349733651E-1
2.203575016E1,1.925008774E0,2.521806479E0,1.642415524E-1
2.205455885E1,2.544713259E0,5.655223846E0,1.257581860E-1
2.207336755E1,2.451559067E0,5.696455956E0,1.211768240E-1
2.209217620E1,1.670285463E0,3.458846331E0,1.969218850E-1
2.211098490E1,7.096518278E-1,7.194253802E-1,4.433987439E-1
2.212979359E1,2.841966748E-1,-1.099448681E0,7.665369511E-1
2.214860229E1,5.034908652E-1,-1.936004043E0,8.722135425E-1
2.216741099E1,1.168779850E0,-1.844987750E0,6.947624087E-1
2.218621969E1,1.931422710E0,-1.210622907E0,4.809658527E-1
2.220502839E1,2.298541784E0,1.116323397E-1,4.623350203E-1
2.222383708E1,1.896299005E0,1.775274873E0,5.841990709E-1
2.224264573E1,8.809944391E-1,2.368789196E0,3.847574294E-1
2.226145443E1,-1.592784226E-1,1.528492570E0,1.318666488E-1
2.228026312E1,-5.413633585E-1,6.412369013E-1,3.505499661E-1
2.229907182E1,-1.849340051E-1,4.051444530E-1,5.701495409E-1
2.231788052E1,2.362451702E-1,3.571929336E-1,5.185329914E-1
2.233668917E1,9.513945878E-2,2.961082160E-1,4.360685945E-1
2.235549786E1,-3.520007432E-1,4.912739098E-1,1.987544298E-1
2.237430656E1,-9.152019024E-1,1.073564067E-1,-1.452289373E-1
2.239311526E1,-1.783597589E0,-1.520627856E0,-2.350234836E-1
2.241192396E1,-2.640921831E0,-3.310181379E0,-3.434488773E-1
2.243073260E1,-3.036750793E0,-4.915793419E0,-8.055548072E-1
2.244954130E1,-3.328735828E0,-5.832064152E0,-1.215127945E0
2.246835000E1,-3.781678915E0,-5.844663143E0,-1.145491362E0
2.248715870E1,-3.931947470E0,-5.078889370E0,-8.535063267E-1
2.250596740E1,-3.513517141E0,-2.283881664E0,-6.510104537E-1
2.252477604E1,-2.751179695E0,1.108840466E0,-5.306735635E-1
2.254358474E1,-2.160795927E0,2.571896076E0,-2.823641598E-1
2.256239344E1,-1.638445020E0,2.935961008E0,-9.636115283E-2
2.258120214E1,-1.287818789E0,2.724607944E0,-4.199574888E-2
2.260001078E1,-1.180615067E0,2.054432154E0,-9.666658193E-2
2.261881948E1,-1.174506545E0,7.325585485E-1,-3.269560039E-1
2.263762818E1,-8.889354467E-1,-1.034698844E0,-5.777087808E-1
2.265643688E1,-3.837648034E-1,-2.399331570E0,-7.432484031E-1
2.267524552E1,2.290677279E-3,-2.713612556E0,-7.740961909E-1
2.269405422E1,2.069245130E-1,-2.265250683E0,-6.320741773E-1
2.271286292E1,3.932329118E-1,-1.448853374E0,-3.782671690E-1
2.273167162E1,5.633538961E-1,-5.826719403E-1,-1.018587798E-1
2.275048026E1,4.976878166E-1,5.329642445E-2,1.355317384E-1
2.276928896E1,3.877353072E-1,9.118422270E-1,2.259371281E-1
2.278809766E1,3.926220834E-1,2.209052801E0,1.724879891E-1
2.280690635E1,-3.422271907E-1,2.997656584E0,1.682120711E-1
2.282571500E1,-6.632274389E-1,1.869039893E0,2.732777894E-1
2.284452370E1,1.394258887E-1,9.356653094E-1,1.969218850E-1
2.286333240E1,8.324320912E-1,7.496622801E-1,-2.441861928E-1
2.288214104E1,5.877877474E-1,7.954758406E-1,-6.445965767E-1
2.290094974E1,-2.799207568E-1,4.637857676E-1,-7.658497691E-1
2.291975844E1,1.046075895E-1,6.154286116E-2,-5.025745630E-1
2.293856714E1,1.625082731E0,-8.853467703E-1,8.971819282E-2
2.295737578E1,2.075582743E0,-2.023355246E0,6.294017434E-1
2.297618448E1,1.430527925E0,-2.278383970E0,7.060630918E-1
2.299499318E1,2.489202656E-2,-1.637605190E0,3.349733651E-1
2.301380182E1,-2.420482337E-1,-5.875586867E-1,6.406260282E-2
2.303261052E1,5.502206683E-1,3.741439432E-2,1.004080176E-1
2.305141922E1,1.220701933E0,1.843231618E-1,1.602710485E-1
2.307022786E1,1.706630826E0,6.612421572E-2,3.847574294E-1
2.308903656E1,2.023660660E0,-8.933641016E-2,5.029563904E-1
2.310784526E1,2.153160334E0,-3.894151375E-2,4.519506097E-1
2.312665391E1,2.357183218E0,1.441752195E0,2.937411666E-1
2.314546260E1,2.345882654E0,3.800004482E0,2.045574784E-1
2.316427125E1,2.020606279E0,4.528439999E0,7.047650218E-2
2.318307995E1,1.644019008E0,3.764880657E0,-2.855710872E-2
2.320188865E1,1.259796143E0,1.997012377E0,2.204395086E-1
2.322069729E1,8.889354467E-1,2.347180545E-1,5.594597459E-1
2.323950599E1,6.635328531E-1,-1.001102328E0,7.237776518E-1
2.325831469E1,7.319477201E-1,-1.577131271E0,7.094227076E-1
2.327712333E1,1.102502942E0,-1.327905536E0,6.190173626E-1
2.329593203E1,1.696246505E0,-5.463265181E-1,4.562265575E-1
2.331474073E1,2.182175398E0,6.519267559E-1,3.908658922E-1
2.333354938E1,1.856899261E0,1.662878990E0,4.556156993E-1
2.335235807E1,1.075625658E0,2.056570053E0,3.184804916E-1
2.337116672E1,2.066190839E-1,1.789935231E0,4.756972939E-2
2.338997542E1,-2.228065431E-1,1.121668339E0,2.008923888E-1
2.340878412E1,-7.773031294E-2,5.795413256E-1,5.628194213E-1
2.342759276E1,-8.292251825E-2,7.010999322E-1,7.106444240E-1
2.344640146E1,-4.781406820E-1,9.167290330E-1,6.297071576E-1
2.346521010E1,-9.313893318E-1,5.902311802E-1,2.781645656E-1
2.348401880E1,-1.458550572E0,-5.545729399E-1,-1.491994411E-1
2.350282750E1,-2.203249693E0,-2.475382090E0,-5.273138881E-1
2.352163615E1,-2.956729889E0,-4.504387856E0,-9.888089895E-1
2.354044484E1,-3.547113657E0,-6.023030281E0,-1.449693203E0
2.355925349E1,-4.058087349E0,-6.362661362E0,-1.516581059E0
2.357806219E1,-4.364121914E0,-5.690652847E0,-1.328745484E0
2.359687083E1,-4.142995358E0,-3.553298473E0,-1.106397152E0
2.361567953E1,-3.411200047E0,-2.429644912E-1,-9.411629438E-1
2.363448823E1,-2.702922821E0,1.714190125E0,-5.706840754E-1
2.365329688E1,-2.013581514E0,2.526082516E0,-1.296523362E-1
2.367210557E1,-1.507723689E0,2.545324087E0,2.060845941E-1
2.369091422E1,-1.453969240E0,2.032136202E0,3.594072461E-1
2.370972292E1,-1.647913218E0,8.840487003E-1,2.653367817E-1
2.372853162E1,-1.584690452E0,-5.218926072E-1,1.022405624E-1
2.374734026E1,-1.335464835E0,-1.480006576E0,-6.261184346E-3
2.376614896E1,-1.002553105E0,-1.750001073E0,-5.573981255E-2
2.378495760E1,-4.970769584E-1,-1.610422492E0,-3.497100621E-2
2.380376630E1,4.077405483E-2,-1.190159559E0,6.223006546E-2
2.382257495E1,5.575508475E-1,-6.144359708E-1,1.883700192E-1
2.384138365E1,9.029849768E-1,-4.382828996E-2,3.108448982E-1
2.386019229E1,7.444701195E-1,1.471683741E0,2.806079686E-1
2.387900099E1,3.025220931E-1,5.073086262E0,8.513683826E-2
2.389780964E1,-2.069245130E-1,6.567218781E0,1.440836042E-1
2.391661833E1,7.467607409E-2,2.920689821E0,3.991123140E-1
2.393542698E1,1.287895083E0,-1.724116355E-1,2.604500055E-1
2.395423568E1,1.509327173E0,-5.802285671E-1,-1.757712960E-1
2.397304432E1,5.627430081E-1,-8.292251825E-2,-4.515688419E-1
2.399185302E1,-6.781931520E-1,-9.849911928E-2,-4.860817194E-1
2.401066172E1,-3.944546282E-1,-2.961082160E-1,-3.807105422E-1
2.402947036E1,1.084177494E0,4.596625641E-2,-1.485885978E-1
2.404827906E1,1.642491937E0,-1.149920002E-1,3.584909737E-1
2.406708771E1,1.133350730E0,-4.952444136E-1,7.674532533E-1
2.408589635E1,-3.654393852E-1,-7.851678133E-1,9.311602712E-1
2.410470505E1,-1.947075576E-1,1.525591016E-1,8.022715449E-1
2.412351375E1,8.871029615E-1,4.378247857E-1,7.534037232E-1
2.414232240E1,1.785430193E0,9.788827598E-2,7.362999916E-1
2.416113109E1,2.242038488E0,-1.235438585E-1,7.897491455E-1
2.417993974E1,2.322364807E0,4.260659590E-2,8.758786321E-1
2.419874839E1,2.227988958E0,2.139645338E0,1.043861628E0
2.421755708E1,1.825746059E0,5.161964893E0,1.059438229E0
2.423636578E1,1.454656363E0,5.317120075E0,6.672742963E-1
2.425517443E1,1.552392006E0,3.453654051E0,2.201340795E-1
2.427398307E1,1.898742318E0,1.033095479E0,2.292967886E-1
2.429279177E1,1.953413129E0,-9.766684175E-1,4.302655458E-1
2.431160042E1,1.685251236E0,-2.000143051E0,5.951942801E-1
2.433040912E1,1.410369992E0,-2.188283920E0,6.639146209E-1
2.434921776E1,1.315688610E0,-1.823913574E0,5.887804031E-1
2.436802646E1,1.310801864E0,-1.009043336E0,4.919611216E-1
2.438683510E1,1.489780068E0,3.306210935E-1,4.470638335E-1
2.440564380E1,1.743587136E0,1.926459551E0,4.553102851E-1
2.442445245E1,1.760690928E0,2.633591652E0,4.403445125E-1
2.444326115E1,1.217647672E0,1.479624748E0,4.122455418E-1
2.446206979E1,3.901786804E-1,-3.605526090E-1,3.777326643E-1
2.448087844E1,-6.917845458E-2,-8.584694862E-1,3.716242015E-1
2.449968714E1,-9.544488788E-2,-1.501157135E-1,3.282540441E-1
2.451849578E1,8.719844371E-2,7.175928354E-1,2.693072855E-1
2.453730448E1,1.097997949E-1,1.194969893E0,1.953947693E-1
2.455611313E1,-1.091889441E-1,1.241699815E0,1.816506982E-1
2.457492182E1,-5.337277651E-1,7.331694365E-1,2.274642438E-1
2.459373047E1,-1.218487620E0,-3.538332880E-1,2.207449228E-1
2.461253917E1,-1.989147782E0,-1.890190482E0,9.827005118E-2
2.463134781E1,-2.569452524E0,-3.758848667E0,-2.640387416E-1
2.465015646E1,-3.051411152E0,-5.212054253E0,-8.186880350E-1
2.466896516E1,-3.438077450E0,-5.892309189E0,-1.191915751E0
2.468777380E1,-3.709599018E0,-5.429821491E0,-1.309809208E0
2.470658250E1,-3.697993040E0,-2.908167362E0,-1.190388560E0
2.472539115E1,-3.348588228E0,4.512633979E-1,-8.403730989E-1
2.474419979E1,-3.168388367E0,2.377952099E0,-6.595623493E-1
2.476300849E1,-2.947566986E0,3.130821228E0,-7.884510756E-1
2.478181714E1,-2.446672440E0,3.513822556E0,-8.712208867E-1
2.480062583E1,-1.727705121E0,2.973833561E0,-7.160657048E-1
2.481943448E1,-1.141520858E0,1.441141367E0,-4.921901822E-1
2.483824312E1,-7.835643291E-1,-4.989095032E-1,-3.382566571E-1
2.485705182E1,-6.500942111E-1,-2.071612120E0,-1.971509457E-1
2.487586047E1,-5.297572613E-1,-2.799741983E0,-5.512896553E-2
2.489466917E1,-1.922641695E-1,-2.381617069E0,5.344913807E-4
2.491347781E1,3.526115716E-1,-9.852202535E-1,1.794363745E-2
2.493228651E1,5.205945969E-1,-4.107947648E-2,8.971819282E-2
2.495109516E1,6.482616663E-1,-4.963133857E-2,1.825669706E-1
2.496990380E1,7.059867382E-1,-4.982986450E-1,2.256316990E-1
2.498871250E1,2.661767006E-1,-8.868738413E-1,2.091388255E-1
2.500752115E1,-5.386145711E-1,1.310420036E0,1.727934182E-1
2.502632979E1,-1.014159203E0,4.072136879E0,2.305184901E-1
2.504513849E1,-4.091149569E-1,3.723037720E0,8.758022636E-2
2.506394714E1,7.857022882E-1,2.460721731E0,-1.803526580E-1
2.508275578E1,8.953493834E-1,4.836383164E-1,-2.163926363E-1
2.510156448E1,-5.696150661E-2,-7.918871045E-1,-3.461976945E-1
2.512037312E1,-5.951179266E-1,-7.421030402E-1,-5.896202922E-1
2.513918177E1,6.116108298E-1,1.543916464E-1,-7.258392572E-1
2.515799047E1,1.502302527E0,-3.710897267E-2,-4.738647640E-1
2.517679912E1,5.389199853E-1,-3.581092060E-1,-1.786728203E-2
2.519560776E1,-5.376983285E-1,6.766660213E-1,1.340046227E-1
2.521441646E1,1.311794519E-1,9.695672989E-1,1.556897014E-1
2.523322510E1,1.017900586E0,1.400367320E-1,4.467584193E-1
2.525203375E1,1.549337745E0,-1.791309565E-1,8.920660615E-1
2.527084245E1,1.658984780E0,-1.186570823E-1,1.140680909E0
2.528965109E1,1.659290195E0,8.842013776E-2,9.714761972E-1
2.530845979E1,1.495888591E0,9.726215601E-1,7.039251328E-1
2.532726844E1,1.414340496E0,1.606070161E0,6.214607358E-1
2.534607708E1,1.560943842E0,1.570030212E0,6.941515803E-1
2.536488573E1,1.736562371E0,1.749924660E0,7.683694959E-1
2.538369443E1,1.786041021E0,1.966470003E0,8.270108104E-1
2.540250307E1,1.565525174E0,1.976243615E0,9.125294685E-1
2.542131172E1,1.305609703E0,1.647913218E0,9.867473841E-1
2.544012042E1,1.133350730E0,1.525743723E0,9.317711592E-1
2.545892906E1,1.031033874E0,1.172368646E0,8.300650716E-1
2.547773771E1,1.061576128E0,5.841227174E-1,8.774057031E-1
2.549654641E1,1.079290748E0,1.525591016E-1,1.042334437E0
2.551535505E1,1.029812098E0,-7.803573459E-2,1.139764667E0
2.553416370E1,8.703046441E-1,-3.741439432E-2,1.061270714E0
2.555297234E1,6.058077812E-1,9.972081333E-2,7.048413754E-1
2.557178104E1,3.180987239E-1,2.481566966E-1,2.775537372E-1
2.559058969E1,1.427855492E-1,6.467345357E-1,7.505785674E-2
2.560939833E1,9.025268257E-2,8.819107413E-1,6.894938648E-2
2.562820703E1,-3.374931216E-2,6.079457402E-1,4.199574701E-3
2.564701568E1,-3.266505599E-1,1.925695986E-1,-1.214058921E-1
2.566582432E1,-7.637118101E-1,1.452289373E-1,-1.259872466E-1
2.568463297E1,-1.314695954E0,3.822376728E-1,-2.069245130E-1
2.570344167E1,-1.991285682E0,4.653128982E-1,-4.824166298E-1
2.572225031E1,-2.452475309E0,2.672456764E-2,-6.843016148E-1
2.574105896E1,-2.703533649E0,-4.387410581E-1,-9.304730892E-1
2.575986760E1,-2.775613546E0,-9.378796220E-1,-1.516275644E0
2.577867630E1,-2.623818159E0,-1.165725589E0,-1.903247356E0
2.579748495E1,-2.384366035E0,-8.679376245E-1,-1.719993114E0
2.581629359E1,-2.290906191E0,-1.834068894E-1,-1.198329568E0
2.583510229E1,-2.286324978E0,4.842491746E-1,-6.629219651E-1
2.585391094E1,-1.945166707E0,9.802571535E-1,-5.566345453E-1
2.587271958E1,-1.266133666E0,1.304311633E0,-6.381826997E-1
2.589152823E1,-7.087355256E-1,1.612178683E0,-6.262711287E-1
2.591033693E1,-4.356867969E-1,2.061456680E0,-5.205945969E-1
2.592914557E1,-3.672719002E-1,2.289379120E0,-3.746020794E-1
2.594795422E1,-3.544441164E-1,2.316561937E0,-2.845021188E-1
2.596676287E1,-4.338542521E-1,2.419184208E0,-2.991624475E-1
2.598557151E1,-6.644490957E-1,2.193170786E0,-3.367295563E-1
2.600438021E1,-6.409314871E-1,1.486038685E0,-1.125486046E-1
2.602318885E1,-2.973299026E-1,6.998782754E-1,2.977116704E-1
2.604199750E1,5.787777901E-2,-3.497100621E-2,7.439355850E-1
2.606080615E1,3.761292100E-1,-6.562790275E-1,1.182218552E0
2.607961484E1,4.683671296E-1,-7.924979329E-1,1.579269290E0
2.609842349E1,3.008422814E-2,-3.718532622E-1,1.406399488E0
2.611723214E1,2.396048307E-1,3.388675153E-1,3.368059099E-1
2.613604078E1,6.717792749E-1,9.442171454E-1,-3.657447994E-1
2.615484943E1,-9.788827598E-2,1.757560253E0,-7.395833135E-1
2.617365813E1,-3.773508966E-1,1.454885483E0,-9.323056340E-1
2.619246677E1,1.097997949E-1,3.147390485E-1,-6.775823236E-1
2.621127542E1,3.116848171E-1,-5.750363469E-1,-3.761292100E-1
2.623008406E1,5.019637346E-1,-7.344674468E-1,-2.576248348E-1
2.624889271E1,7.915053368E-1,-8.401440382E-1,-5.299099907E-2
2.626770141E1,4.900522232E-1,-4.940227270E-1,1.397313084E-2
2.628651005E1,-1.763821393E-1,2.855710872E-2,-6.642963737E-2
2.630531870E1,2.921377122E-1,-1.103113770E0,1.905079931E-1
2.632412734E1,7.863131166E-1,-2.234402895E0,7.485169768E-1
2.634293599E1,1.096089005E0,-3.350191832E0,1.190464973E0
2.636174469E1,1.374329925E0,-4.263408661E0,1.201460242E0
2.638055333E1,1.519406199E0,-4.680006504E0,9.794172049E-1
2.639936198E1,1.623861074E0,-4.345872879E0,7.109498382E-1
2.641817063E1,1.793676615E0,-3.291244984E0,4.919611216E-1
2.643697927E1,2.065503597E0,-1.470614821E-1,3.746784329E-1
2.645578792E1,1.941807032E0,2.334581852E0,3.474957347E-1
2.647459662E1,1.515435696E0,2.511422157E0,2.583120465E-1
2.649340526E1,1.418311000E0,2.075200796E0,2.613662779E-1
2.651221391E1,1.746946812E0,1.554759026E0,5.020400882E-1
2.653102255E1,1.775045753E0,8.266290426E-1,7.564579844E-1
2.654983120E1,1.315994024E0,-2.725905776E-1,9.250518084E-1
2.656863984E1,8.446490765E-1,-1.308663845E0,1.057605624E0
2.658744849E1,7.631009221E-1,-1.758858323E0,1.014235497E0
2.660625719E1,1.031950116E0,-1.607368231E0,8.242620230E-1
2.662506583E1,1.439079762E0,-9.986588955E-1,5.722874999E-1
2.664387448E1,1.506883860E0,-3.648285270E-1,3.068743944E-1
2.666268312E1,1.189243317E0,3.281776905E-1,1.077381819E-1
2.668149177E1,7.905890942E-1,1.193137407E0,-1.420219894E-2
2.670030042E1,4.488200247E-1,1.480540991E0,5.062396824E-2
2.671910906E1,1.873773932E-1,1.040120125E0,2.638096511E-1
2.673791776E1,-6.032116711E-2,4.784461260E-1,4.311818182E-1
2.675672641E1,-3.947600424E-1,1.189625040E-1,4.354577363E-1
2.677553505E1,-6.464291215E-1,1.537808031E-1,2.332672924E-1
2.679434370E1,-9.790354371E-1,2.386885732E-1,-1.695101149E-2
2.681315234E1,-1.670209169E0,-6.880430579E-1,-1.058292910E-1
2.683196099E1,-2.682459354E0,-1.601565123E0,-3.990359604E-1
2.685076964E1,-3.575823545E0,-2.801269054E0,-1.040731072E0
2.686957828E1,-3.756328821E0,-4.350148678E0,-1.516581059E0
2.688838698E1,-3.845818043E0,-4.461322784E0,-1.409071922E0
2.690719562E1,-3.590789318E0,-2.356572390E0,-1.303089857E0
2.692600427E1,-2.926798344E0,4.112529159E-1,-1.270714998E0
2.694481292E1,-2.409716129E0,1.560256600E0,-9.704836011E-1
2.696362156E1,-2.046567440E0,1.896833420E0,-6.274928451E-1
2.698243021E1,-1.762217999E0,1.869345307E0,-4.027010500E-1
2.700123885E1,-1.604237556E0,1.537960649E0,-2.790044844E-1
2.702004750E1,-1.526659966E0,7.725690603E-1,-2.903051674E-1
2.703885615E1,-1.390441060E0,-2.793098986E-1,-4.524851143E-1
2.705766479E1,-1.174506545E0,-1.079901576E0,-6.271874309E-1
2.707647344E1,-8.141067028E-1,-1.386546969E0,-6.412369013E-1
2.709528214E1,-5.477772951E-1,-1.828494906E0,-5.373928547E-1
2.711409078E1,-3.052709103E-1,-1.818110466E0,-3.275668323E-1
2.713289943E1,-5.818320066E-2,-1.177026272E0,-5.665608495E-2
2.715170807E1,9.910997003E-2,-3.193204105E-1,2.442625463E-1
2.717051672E1,-6.872031838E-3,8.822161555E-1,4.843255281E-1
2.718932537E1,1.290414780E-1,3.026671886E0,5.677061677E-1
2.720813401E1,6.497887969E-1,4.768502712E0,7.265264392E-1
2.722694266E1,2.646495700E-1,3.307661533E0,6.776586771E-1
2.724575130E1,3.446705639E-1,6.534538269E-1,3.847574294E-1
2.726455995E1,7.148439884E-1,-5.472427607E-1,-9.941539168E-2
2.728336859E1,4.796678126E-1,-1.656923145E-1,-5.456393361E-1
2.730217724E1,-2.371614426E-1,-1.679830020E-3,-6.149705052E-1
2.732098589E1,-1.821851879E-1,-3.466558084E-2,-5.838172436E-1
2.733979453E1,1.193213820E0,-6.052733064E-1,-3.352024257E-1
2.735860318E1,1.954634905E0,-1.364861846E0,1.532463133E-1
2.737741182E1,1.414645910E0,-1.804977298E0,4.357631505E-1
2.739622047E1,-4.240806997E-1,-1.132434487E0,4.507289231E-1
2.741502912E1,5.039489828E-3,3.742966652E-1,3.551313281E-1
2.743383776E1,1.027979612E0,6.274928451E-1,4.287384152E-1
2.745264641E1,1.739616632E0,4.902049154E-2,5.637356639E-1
2.747145505E1,1.976014495E0,-5.029563904E-1,7.271373272E-1
2.749026370E1,1.971433163E0,-6.559736133E-1,7.579851151E-1
2.750907234E1,1.910653830E0,-1.827960461E-1,6.462000608E-1
2.752788099E1,2.149189711E0,2.922522306E0,5.835881829E-1
2.754668964E1,1.874919295E0,5.419131279E0,5.942780375E-1
2.756549828E1,1.164809346E0,5.028189182E0,3.746784329E-1
2.758430693E1,1.078069091E0,3.433190584E0,2.347944081E-1
2.760311557E1,1.382270932E0,1.346154690E0,5.118136406E-1
2.762192422E1,1.335541129E0,-5.102865100E-1,8.364789486E-1
2.764073286E1,1.025230765E0,-1.318742871E0,9.904124737E-1
2.765954151E1,9.051229358E-1,-1.244524956E0,1.024009109E0
2.767835016E1,9.806389213E-1,-8.105179667E-1,9.629243612E-1
2.769715880E1,1.168474436E0,-2.008160353E-1,7.952467799E-1
2.771596745E1,1.374024510E0,4.301891923E-1,6.501705647E-1
2.773477609E1,1.494666934E0,9.081771374E-1,6.071057916E-1
2.775358474E1,1.380743861E0,1.008356094E0,4.797441661E-1
2.777239339E1,8.828269839E-1,5.444176197E-1,2.949628830E-1
2.779120203E1,3.932329118E-1,1.131594554E-1,2.628933787E-1
2.781001068E1,1.107160673E-1,1.511846948E-2,2.775537372E-1
2.782881932E1,-1.812689304E-1,-1.363716573E-1,2.589228749E-1
2.784762797E1,-3.739912212E-1,-1.476723254E-1,2.048628926E-1
2.786643662E1,-5.486935377E-1,-3.833066672E-2,2.160872146E-2
2.788524526E1,-8.718317747E-1,-4.818057716E-1,-6.734590977E-2
2.790405391E1,-1.536738992E0,-1.475730658E0,-1.336228400E-1
2.792286255E1,-2.585334778E0,-2.667188168E0,-4.347705245E-1
2.794167120E1,-3.509851933E0,-3.963482380E0,-9.188669920E-1
2.796047984E1,-3.679667473E0,-4.906019688E0,-1.304311633E0
2.797928849E1,-3.799088240E0,-4.823555470E0,-1.289040446E0
2.799809714E1,-3.590178490E0,-3.762513638E0,-1.058445573E0
2.801690578E1,-2.720942736E0,-3.312319219E-1,-9.173398614E-1
2.803571438E1,-2.183702707E0,1.581330895E0,-6.360446811E-1
2.805452302E1,-2.000448465E0,2.049545288E0,-1.867665499E-1
2.807333167E1,-1.811085820E0,2.135063887E0,5.245650932E-2
2.809214031E1,-1.826357007E0,2.152167559E0,-1.084253844E-2
2.811094896E1,-1.869116306E0,1.771304369E0,-3.226800561E-1
2.812975760E1,-1.511388779E0,9.243646264E-1,-6.470399499E-1
2.814856625E1,-9.701781869E-1,7.101099193E-2,-7.734853625E-1
2.816737490E1,-5.813738704E-1,-5.008183718E-1,-6.549809575E-1
2.818618354E1,-1.928750277E-1,-1.006599903E0,-3.941491842E-1
2.820499219E1,3.129065037E-1,-1.367610693E0,-9.880454093E-2
2.822380083E1,7.933378816E-1,-1.290338516E0,1.807344258E-1
2.824260948E1,1.118690372E0,-1.069822669E0,4.067479074E-1
2.826141807E1,1.170307040E0,-8.538880944E-1,5.322770476E-1
2.828022672E1,2.142546773E-1,1.767333865E0,4.986804426E-1
2.829903536E1,-1.063026905E0,4.005554676E0,3.529933691E-1
2.831784401E1,-9.255862832E-1,2.764923811E0,2.073062956E-1
2.833665266E1,5.398362875E-1,9.527690411E-1,2.802261710E-2
2.835546130E1,8.721371889E-1,5.665608495E-2,-3.071034551E-1
2.837426995E1,-1.003316641E-1,-4.506525695E-1,-6.843016148E-1
2.839307854E1,-6.986565590E-1,-3.871244490E-1,-8.721371889E-1
2.841188719E1,7.334748507E-1,-5.484644771E-1,-6.180247068E-1
2.843069583E1,1.600954294E0,-1.259490728E0,-2.519745007E-2
2.844950448E1,1.080206990E0,-1.484587908E0,4.119401276E-1
2.846831312E1,-2.997733057E-1,-1.040196538E0,5.331932902E-1
2.848712177E1,-9.116895497E-2,-2.939702570E-1,4.110238552E-1
2.850593042E1,6.800256968E-1,2.087570578E-1,4.238516390E-1
2.852473901E1,1.429000854E0,3.608580232E-1,5.014292598E-1
2.854354766E1,1.915235281E0,1.082726792E-1,7.479060888E-1
2.856235630E1,2.106430531E0,-3.342861533E-1,8.908443451E-1
2.858116495E1,2.128420830E0,-6.458946466E-1,7.808918357E-1
2.859997359E1,2.141248703E0,-7.417976260E-1,5.658736229E-1
2.861878224E1,2.478741884E0,5.309789777E-1,4.220190942E-1
2.863759083E1,2.817762136E0,3.268261909E0,3.462740481E-1
2.865639948E1,2.087494135E0,3.683943510E0,2.531198263E-1
2.867520812E1,1.265293717E0,1.971051335E0,1.080436110E-1
2.869401677E1,9.919396043E-1,2.994678617E-1,2.405974567E-1
2.871282542E1,9.946883917E-1,-7.671477795E-1,5.093702674E-1
2.873163406E1,1.073793173E0,-1.214287996E0,6.434512138E-1
2.875044266E1,1.247579217E0,-1.092118502E0,5.954996943E-1
2.876925130E1,1.586293936E0,-4.387410581E-1,5.371637940E-1
2.878805995E1,1.991591096E0,7.383615971E-1,5.215871930E-1
2.880686859E1,2.074971676E0,1.738013148E0,5.881695747E-1
2.882567724E1,1.603092313E0,1.642110109E0,5.615977049E-1
2.884448583E1,8.138012886E-1,6.647545099E-1,3.468848765E-1
2.886329448E1,1.006370857E-1,-1.420219894E-2,3.041255772E-1
2.888210312E1,-8.719844371E-2,3.009949923E-1,4.650838375E-1
2.890091177E1,8.322793990E-2,6.100836992E-1,5.160895586E-1
2.891972042E1,1.556133330E-1,4.094203711E-1,5.334987044E-1
2.893852901E1,-7.437065244E-2,3.260397315E-1,5.270848274E-1
2.895733766E1,-4.219427407E-1,2.331909388E-1,3.221455812E-1
2.897614630E1,-1.127776742E0,-8.190698028E-1,1.147629321E-1
2.899495495E1,-2.378562927E0,-2.633591652E0,-1.131594554E-1
2.901376359E1,-3.322627306E0,-4.394435406E0,-6.839962006E-1
2.903257219E1,-3.547113657E0,-5.441427231E0,-1.165038466E0
2.905138083E1,-3.842458248E0,-5.625292301E0,-1.321720719E0
2.907018948E1,-4.174759388E0,-5.329031467E0,-1.138161182E0
2.908899813E1,-3.993032217E0,-4.203239918E0,-7.139277458E-1
2.910780672E1,-3.291779518E0,-1.861480713E0,-4.482091665E-1
2.912661537E1,-2.541659117E0,6.705575585E-1,-3.874298632E-1
2.914542401E1,-1.899658561E0,2.095969677E0,-1.748550236E-1
2.916423266E1,-1.422815919E0,2.566398382E0,1.702736691E-2
2.918304125E1,-1.183058381E0,2.362680912E0,9.460496902E-2
2.920184990E1,-1.179698825E0,1.783521295E0,-9.620844387E-3
2.922065854E1,-1.340962410E0,9.799517393E-1,-2.817533016E-1
2.923946714E1,-1.236507535E0,-9.620844387E-3,-4.815003574E-1
2.925827578E1,-8.348754644E-1,-1.054551482E0,-5.343386531E-1
2.927708443E1,-2.725905776E-1,-1.947304726E0,-5.132644176E-1
2.929589307E1,2.490729690E-1,-2.046567440E0,-3.917058110E-1
2.931470172E1,5.810684562E-1,-1.420143485E0,-1.864611208E-1
2.933351031E1,7.927270532E-1,-7.323294878E-1,-2.275406010E-2
2.935231896E1,9.075663090E-1,8.721371889E-1,-2.641914412E-2
2.937112755E1,2.206685692E-1,4.246533871E0,-6.001574174E-2
2.938993620E1,-1.397160411E0,4.323194981E0,1.398076713E-1
2.940874484E1,-1.059056401E0,1.558729529E0,5.008183718E-1
2.942755349E1,3.407000601E-1,1.467560530E-1,3.655157387E-1
2.944636208E1,8.834378719E-1,2.212794125E-1,-2.487675399E-1
2.946517073E1,2.832804024E-1,7.585195899E-1,-7.667660117E-1
2.948397938E1,-7.711946964E-2,1.231009960E0,-9.185615778E-1
2.950278797E1,9.772792459E-1,6.195518374E-1,-4.454603493E-1
2.952159662E1,2.103070736E0,-8.392277956E-1,1.077381819E-1
2.954040526E1,2.334581852E0,-1.593013287E0,3.493282795E-1
2.955921385E1,1.549032331E0,-1.943334222E0,1.688229144E-1
2.957802250E1,1.488940120E-1,-2.134529352E0,-1.745496094E-1
2.959683115E1,-6.513158679E-1,-1.630885839E0,-3.739912212E-1
2.961563974E1,-3.061871827E-1,-6.764369607E-1,-2.072299272E-1
2.963444839E1,8.443436027E-1,4.952444136E-1,-1.006370857E-1
2.965325703E1,1.923176289E0,1.132358074E0,-1.333174109E-1
2.967206563E1,2.577088118E0,1.272853017E0,3.779617324E-2
2.969087427E1,2.790884733E0,1.053558826E0,3.068743944E-1
2.970968292E1,2.661385059E0,7.026270628E-1,4.592807889E-1
2.972849151E1,2.450642824E0,6.116108298E-1,3.994177580E-1
2.974730016E1,2.472938776E0,1.693421364E0,2.946574390E-1
2.976610880E1,2.009916544E0,2.765229225E0,3.386384547E-1
2.978491740E1,8.880192041E-1,2.923133135E0,3.316137195E-1
2.980372604E1,1.206423342E-2,2.291822672E0,3.560476005E-1
2.982253469E1,-9.636115283E-2,1.629282355E0,5.218926072E-1
2.984134328E1,5.025745630E-1,1.194359064E0,7.356891632E-1
2.986015193E1,1.627220750E0,1.037982225E0,9.574267268E-1
2.987896057E1,2.383144140E0,7.328640223E-1,9.076426625E-1
2.989776917E1,2.236846209E0,1.421747059E-1,8.377006650E-1
2.991657781E1,1.708463430E0,-3.666610718E-1,8.517501354E-1
2.993538646E1,9.338327646E-1,4.414898455E-1,5.954996943E-1
2.995419505E1,-1.739387512E-1,1.509250879E0,1.627144367E-1
2.997300370E1,-6.989619732E-1,1.522384048E0,9.979717433E-2
2.999181229E1,-3.385621011E-1,1.022405624E0,1.205659807E-1
3.001062094E1,-9.315420873E-3,3.043546379E-1,2.189123929E-1
3.002942953E1,-2.154763639E-1,-1.397313178E-1,2.274642438E-1
3.004823818E1,-6.583406329E-1,-2.112004459E-1,-2.764083818E-2
3.006704682E1,-1.417318344E0,-7.384379506E-1,-2.478512824E-1
3.008585542E1,-2.724607944E0,-2.105819464E0,-2.402156889E-1
3.010466406E1,-3.618582726E0,-3.720059872E0,-4.341596961E-1
3.012347271E1,-3.743195534E0,-4.718795300E0,-9.668185115E-1
3.014228130E1,-3.844901800E0,-4.755140305E0,-1.180920482E0
3.016108995E1,-3.889188051E0,-4.326936722E0,-8.443436027E-1
3.017989854E1,-3.516571283E0,-3.185873985E0,-2.912214398E-1
3.019870719E1,-2.742322445E0,-1.132129073E0,-5.085303262E-2
3.021751583E1,-1.965935588E0,1.169008970E0,-1.482831687E-1
3.023632443E1,-1.428619027E0,2.819900036E0,-2.426590770E-1
3.025513307E1,-1.346460104E0,3.379436016E0,-2.151709497E-1
3.027394167E1,-1.682731509E0,3.100584269E0,-1.910424829E-1
3.029275031E1,-1.750306487E0,1.924626946E0,-2.417428046E-1
3.031155891E1,-1.415485859E0,3.654393852E-1,-2.958027720E-1
3.033036755E1,-1.034317136E0,-9.094752073E-1,-2.866400778E-1
3.034917620E1,-6.253548861E-1,-1.905767083E0,-2.673983872E-1
3.036798479E1,-6.368082762E-2,-2.660163403E0,-2.542651594E-1
3.038679344E1,4.524851143E-1,-2.283881664E0,-1.097997949E-1
3.040560203E1,9.268079996E-1,-1.237194777E0,1.373642832E-1
3.042441068E1,1.362723827E0,-4.534013867E-1,3.218401372E-1
3.044321927E1,1.751528144E0,1.629435122E-1,4.101075828E-1
3.046202792E1,-2.848075330E-1,5.499457836E0,3.166479468E-1
3.048083651E1,-2.003502607E0,6.507050514E0,3.160370886E-1
3.049964516E1,-2.225011140E-1,3.642711163E0,4.583645165E-1
3.051845375E1,1.008432508E0,6.620057225E-1,9.704835713E-2
3.053726240E1,1.803526580E-1,-8.795437217E-1,-5.404471159E-1
3.055607099E1,-6.516213417E-1,-1.059743643E0,-7.899782062E-1
3.057487964E1,4.631749392E-1,-4.075878263E-1,-5.447230339E-1
3.059368828E1,1.315077782E0,-6.177956462E-1,-1.055238619E-1
3.061249688E1,1.197795153E0,-7.072847486E-1,3.303920031E-1
3.063130552E1,5.410579443E-1,-7.967739105E-1,3.688753843E-1
3.065011412E1,-4.596625641E-2,-6.706339121E-1,1.804290116E-1
3.066892276E1,-7.986827940E-2,-1.663031727E-1,1.627144367E-1
3.068773135E1,3.593308926E-1,3.394783735E-1,4.348468781E-1
3.070654000E1,1.204514384E0,3.904841244E-1,7.671477795E-1
3.072534859E1,2.106430531E0,4.323271513E-1,9.134457111E-1
3.074415724E1,2.521806479E0,3.981196880E-1,8.428928852E-1
3.076296583E1,2.510505915E0,1.766875684E-1,7.512657642E-1
3.078177448E1,2.348631382E0,-2.435753495E-1,6.721610427E-1
3.080058307E1,2.383449554E0,-3.520007432E-1,4.409553707E-1
3.081939172E1,2.781416655E0,1.745648742E0,2.628933787E-1
3.083820031E1,2.289073706E0,3.573074579E0,3.462740481E-1
3.085700896E1,1.073793173E0,3.096308470E0,4.354577363E-1
3.087581755E1,4.518742561E-1,1.660130143E0,4.937936664E-1
3.089462620E1,4.619532526E-1,3.617742956E-1,7.280535698E-1
3.091343479E1,9.258917570E-1,-5.838935971E-1,9.216921329E-1
3.093224344E1,1.490390897E0,-8.798491359E-1,9.131402969E-1
3.095105203E1,1.964102983E0,-7.121715546E-1,8.056311607E-1
3.096986068E1,2.152854919E0,-5.787777901E-2,7.622610331E-1
3.098866927E1,1.612254977E0,5.416688323E-1,5.121190548E-1
3.100747787E1,5.358657837E-1,4.607315361E-1,1.257581860E-1
3.102628651E1,-2.786990702E-1,2.631224692E-1,1.285069883E-1
3.104509510E1,-2.402156889E-1,8.296833038E-1,4.467584193E-1
3.106390375E1,-1.070509851E-1,6.693359017E-1,6.556681991E-1
3.108271234E1,-4.631749392E-1,-3.520007432E-1,5.310553312E-1
3.110152099E1,-9.448279738E-1,-5.750363469E-1,1.052947938E-1
3.112032958E1,-1.758858323E0,-8.541935086E-1,-2.582356930E-1
3.113913823E1,-2.819594622E0,-2.489126205E0,-4.732539058E-1
3.115794682E1,-3.426776648E0,-4.417342186E0,-9.964445829E-1
3.117675547E1,-3.700436354E0,-5.338194370E0,-1.554759026E0
3.119556406E1,-3.979898930E0,-5.258478642E0,-1.510167122E0
3.121437266E1,-3.950272799E0,-4.408790112E0,-1.036760569E0
3.123318130E1,-3.379130602E0,-2.544407845E0,-6.186355352E-1
3.125198990E1,-2.520584822E0,-1.944021434E-1,-5.480827093E-1
3.127079854E1,-1.624395609E0,2.100856543E0,-5.795413256E-1
3.128960714E1,-1.107313395E0,3.093254089E0,-4.540122151E-1
3.130841578E1,-9.683456421E-1,3.125018120E0,-2.536543310E-1
3.132722438E1,-1.166260123E0,2.415824652E0,-1.690519750E-1
3.134603297E1,-1.306754947E0,1.140909910E0,-2.319692522E-1
3.136484162E1,-1.135106921E0,-2.866400778E-1,-2.405211031E-1
3.138365021E1,-7.857022882E-1,-1.659901023E0,-2.084516287E-1
3.140245885E1,-3.956763148E-1,-2.634202480E0,-1.446180940E-1
3.142126745E1,2.397575416E-2,-2.619542122E0,-2.092151903E-2
3.144007609E1,5.441122055E-1,-1.721902013E0,9.307785332E-2
3.145888469E1,1.200849414E0,-1.015762687E0,1.059056446E-1
3.147769328E1,1.586904764E0,-4.915793240E-1,1.138466597E-1
3.149650193E1,1.552392006E0,1.009272337E0,7.536327839E-2
3.151531052E1,-1.832770824E0,6.783153534E0,-1.400367320E-1
3.153411912E1,-2.169347763E0,6.446881771E0,4.421006888E-2
3.155292776E1,1.430909634E-1,3.148841381E0,5.927509069E-1
3.157173635E1,1.458016038E0,-2.038702667E-1,5.093702674E-1
3.159054500E1,3.144336343E-1,-1.512992263E0,-2.539597452E-1
3.160935359E1,-6.956022978E-1,-1.020038605E0,-7.142331600E-1
3.162816219E1,6.458182931E-1,-8.337301612E-1,-4.167505503E-1
3.164697083E1,1.878584385E0,-1.399680138E0,-1.149920002E-1
3.166577943E1,2.150105953E0,-1.588431954E0,9.552124143E-2
3.168458802E1,1.428695440E0,-1.563692570E0,-7.162184268E-2
3.170339667E1,3.190149665E-1,-1.258574367E0,-3.935383558E-1
3.172220526E1,-2.304421216E-1,-7.158366442E-1,-3.855973184E-1
3.174101385E1,3.008422814E-2,6.856760383E-2,-2.087570578E-1
3.175982250E1,9.426900148E-1,8.125795722E-1,-6.459710002E-2
3.177863109E1,1.953718543E0,9.921686649E-1,2.518981397E-1
3.179743969E1,2.508062601E0,7.905890942E-1,5.014292598E-1
3.181624833E1,2.652222395E0,2.539597452E-1,5.200600624E-1
3.183505693E1,2.508062601E0,-3.260397315E-1,3.209238648E-1
3.185386557E1,2.378562927E0,-5.921400785E-1,-1.267508045E-2
3.187267417E1,2.267999411E0,-1.786728203E-2,-1.369825006E-1
3.189148276E1,2.420405865E0,1.598739982E0,-1.527118147E-4
3.191029141E1,1.937836528E0,2.600300312E0,2.451788187E-1
3.192910000E1,9.763630033E-1,2.208441973E0,3.795652092E-1
3.194790859E1,3.284831047E-1,1.540404081E0,4.449258745E-1
3.196671724E1,5.013529062E-1,1.128082156E0,5.991647840E-1
3.198552583E1,1.349285245E0,4.497362971E-1,7.341620326E-1
3.200433443E1,2.014497995E0,-1.565296054E-1,8.010498285E-1
3.202314302E1,1.422586918E0,2.038702667E-1,8.566369414E-1
3.204195167E1,4.179722369E-1,1.065470338E0,6.547518969E-1
3.206076026E1,-1.980672181E-1,1.660130143E0,1.862320602E-1
3.207956885E1,-2.866400778E-1,1.692505002E0,1.080436110E-1
3.209837750E1,-6.520794332E-2,1.346765518E0,2.787754238E-1
3.211718609E1,-1.603474095E-2,6.525375843E-1,3.823140264E-1
3.213599469E1,-4.405735731E-1,2.444916219E-1,4.110238552E-1
3.215480333E1,-9.915578365E-1,9.086353332E-2,2.491493225E-1
3.217361193E1,-1.641499281E0,-6.556681991E-1,3.413109109E-2
3.219242052E1,-2.347715139E0,-2.124450445E0,-9.208522737E-2
3.221122912E1,-2.833033323E0,-3.839174986E0,-4.430169761E-1
3.223003776E1,-3.212064028E0,-5.152496815E0,-1.031568289E0
3.224884635E1,-3.712958813E0,-5.502511978E0,-1.316223145E0
3.226765495E1,-4.033042908E0,-4.932897091E0,-9.949174523E-1
3.228646359E1,-3.683027267E0,-3.314151764E0,-4.585935771E-1
3.230527219E1,-2.703533649E0,8.872556686E-2,-3.055763543E-1
3.232408078E1,-1.889885068E0,2.679405212E0,-4.424061179E-1
3.234288938E1,-1.461910248E0,3.520236492E0,-4.610369802E-1
3.236169802E1,-1.314390540E0,3.454875708E0,-3.541387022E-1
3.238050662E1,-1.498255610E0,2.880679369E0,-3.260397315E-1
3.239931521E1,-1.603932142E0,1.823837161E0,-3.791834414E-1
3.241812380E1,-1.248724461E0,1.837123185E-1,-3.984251320E-1
3.243693245E1,-7.194253802E-1,-1.553919077E0,-3.999522328E-1
3.245574104E1,-2.670929730E-1,-2.916719198E0,-4.133908749E-1
3.247454964E1,5.971032009E-2,-3.647979736E0,-3.214583695E-1
3.249335823E1,3.724641204E-1,-3.361492395E0,-9.972081333E-2
3.251216688E1,7.383615971E-1,-2.229821682E0,1.459161341E-1
3.253097547E1,1.152287006E0,-1.108000517E0,2.586174607E-1
3.254978406E1,1.579880118E0,-3.920112252E-1,2.613662779E-1
3.256859266E1,1.432054996E0,2.674212933E0,1.789018959E-1
3.258740130E1,-6.656708121E-1,6.715960026E0,1.492757946E-1
3.260620990E1,-1.588660955E0,4.877615452E0,2.971008420E-1
3.262501849E1,1.021642014E-1,2.034274101E0,4.036936760E-1
3.264382708E1,7.569924593E-1,6.012263894E-1,-8.414421231E-2
3.266263568E1,1.559187621E-1,-4.260659590E-2,-5.618267655E-1
3.268144432E1,-4.421007037E-1,-4.763081372E-1,-6.397097707E-1
3.270025292E1,7.258392572E-1,-8.282325268E-1,-3.571929336E-1
3.271906151E1,1.641270280E0,-1.183440208E0,1.172063202E-1
3.273787010E1,1.621723175E0,-9.571213126E-1,4.864634871E-1
3.275667875E1,7.896727920E-1,-3.422271907E-1,3.963635266E-1
3.277548734E1,-2.331909388E-1,4.225535989E-1,-9.926267900E-3
3.279429594E1,-1.724116355E-1,1.072189689E0,-8.475505561E-2
3.281310453E1,9.301676750E-1,1.108840466E0,9.338327497E-2
3.283191312E1,2.150716782E0,4.604261220E-1,3.978906274E-1
3.285072177E1,2.661385059E0,1.908897609E-2,6.407024264E-1
3.286953036E1,2.632675409E0,-3.135173619E-1,7.014816999E-1
3.288833896E1,2.574033976E0,-7.784484625E-1,5.359421372E-1
3.290714755E1,2.607630491E0,-9.183325171E-1,2.082225531E-1
3.292595615E1,2.653749466E0,-1.656923145E-1,-7.895200700E-2
3.294476474E1,2.515392542E0,1.671125412E0,-4.627167806E-2
3.296357333E1,1.664177060E0,2.442396402E0,1.914242655E-1
3.298238198E1,8.186880350E-1,1.999455810E0,4.241570532E-1
3.300119057E1,4.854708612E-1,1.745343328E0,5.481590629E-1
3.301999917E1,7.765395641E-1,1.679066420E0,6.410078406E-1
3.303880776E1,1.954024076E0,1.138161182E0,6.636092067E-1
3.305761635E1,2.154687405E0,2.115058601E-1,6.801020503E-1
3.307642495E1,1.009654164E0,-1.620272398E-1,5.991647840E-1
3.309523359E1,-2.383831441E-1,9.420791864E-1,3.038201630E-1
3.311404219E1,-4.488200247E-1,1.811620235E0,3.923930228E-1
3.313285078E1,-1.152974218E-1,1.201994658E0,6.150468588E-1
3.315165938E1,8.261708915E-2,1.159082651E-1,6.608603597E-1
3.317046797E1,-5.451811850E-2,-4.934118688E-1,4.925719500E-1
3.318927656E1,-6.629219651E-1,-6.727718711E-1,1.434727460E-1
3.320808516E1,-1.567586780E0,-1.052413464E0,-3.602471650E-1
3.322689375E1,-2.461027145E0,-2.092686415E0,-7.893673778E-1
3.324570240E1,-3.159531116E0,-3.636679173E0,-9.976662993E-1
3.326451099E1,-3.816802740E0,-4.578910828E0,-1.062110662E0
3.328331958E1,-4.472623825E0,-4.552339077E0,-1.016907930E0
3.330212818E1,-4.712075710E0,-3.921944857E0,-7.090409398E-1
3.332093677E1,-4.077939987E0,-2.479658127E0,-3.293993771E-1
3.333974536E1,-2.847999096E0,2.899997234E-1,-2.148655206E-1
3.335855396E1,-1.881638646E0,2.532496452E0,-3.022166789E-1
3.337736255E1,-1.458855987E0,3.171137094E0,-2.551814318E-1
3.339617120E1,-1.757331252E0,2.652833223E0,-9.208522737E-2
3.341497979E1,-2.301901579E0,1.838802934E0,-1.969982497E-2
3.343378839E1,-2.431095839E0,1.233147860E0,5.428905040E-2
3.345259698E1,-2.234708309E0,3.672719002E-1,2.644205093E-1
3.347140557E1,-1.848958254E0,-4.463766217E-1,4.437041879E-1
3.349021417E1,-1.346154690E0,-8.175426722E-1,4.605024755E-1
3.350902276E1,-3.663556576E-1,-1.444882870E0,3.978906274E-1
3.352783135E1,8.180772066E-1,-2.029769182E0,2.622825503E-1
3.354663995E1,1.435414672E0,-1.600343466E0,1.538571566E-1
3.356544854E1,1.722818375E0,-9.858311415E-1,3.718532622E-2
3.358425714E1,1.983650088E0,-8.520555496E-1,-4.932591692E-2
3.360306573E1,7.175928354E-1,2.226461887E0,-3.344388679E-2
3.362187432E1,-3.028504372E0,9.094676018E0,6.772769243E-2
3.364068292E1,-8.901571631E-1,5.882459164E0,4.430933297E-1
3.365949156E1,1.322713375E0,5.474718809E-1,3.325299621E-1
3.367830016E1,9.173398614E-1,-3.040110350E0,-6.398624927E-2
3.369710875E1,-5.367820263E-1,-3.576205254E0,-3.080197275E-1
3.371591734E1,-1.939439960E-2,-1.981817603E0,-4.928010404E-1
3.373472594E1,1.215509653E0,-1.220396519E0,-3.568875194E-1
3.375353453E1,1.501386166E0,-6.602495313E-1,3.108448982E-1
3.377234312E1,1.070433497E0,5.774033666E-1,7.949413657E-1
3.379115172E1,3.730749488E-1,1.501920700E0,7.891383171E-1
3.380996031E1,1.039967462E-1,1.850409031E0,7.188908458E-1
3.382876891E1,3.330644667E-1,1.787186384E0,7.738671303E-1
3.384757750E1,1.082345009E0,1.522994876E0,7.161420584E-1
3.386638609E1,1.942112446E0,8.825215697E-1,6.214607358E-1
3.388519469E1,2.564565897E0,-1.776038408E-1,5.432722569E-1
3.390400328E1,2.853496552E0,-1.138542891E0,4.064424932E-1
3.392281188E1,3.017203569E0,-1.605535626E0,1.804290116E-1
3.394162047E1,3.261542559E0,-1.155646682E0,3.474193811E-2
3.396042906E1,3.557803392E0,2.345271587E0,6.589514762E-2
3.397923766E1,2.205082178E0,3.442964315E0,1.685174853E-1
3.399804625E1,6.821636558E-1,1.934400558E0,-5.955760833E-3
3.401685484E1,2.702999115E-2,6.259657145E-1,1.761530787E-1
3.403566344E1,3.226800561E-1,3.355078697E-1,5.240305662E-1
3.405447203E1,1.121744633E0,5.401417017E-1,6.410078406E-1
3.407328062E1,1.977541685E0,7.102626562E-1,6.239041090E-1
3.409208922E1,2.678183556E0,3.413109183E-1,6.813237667E-1
3.411089781E1,2.645197630E0,-7.656207085E-1,6.990383267E-1
3.412970641E1,1.706019998E0,-7.369108796E-1,5.741200447E-1
3.414851500E1,1.125486046E-1,1.030041218E0,3.248943985E-1
3.416732359E1,-9.335273504E-1,1.699529767E0,2.418191582E-1
3.418613219E1,-7.872294188E-1,1.568197608E0,4.009448588E-1
3.420494078E1,-1.122431830E-1,1.260635972E0,5.921400785E-1
3.422374938E1,1.104106456E-1,4.066715539E-1,6.871268153E-1
3.424255797E1,-1.605001241E-1,-2.093679011E-1,4.632512927E-1
3.426136656E1,-6.513158679E-1,-8.398386240E-1,-5.818320066E-2
3.428017516E1,-1.319582820E0,-2.184313536E0,-5.981721878E-1
3.429898375E1,-2.237457037E0,-3.574983597E0,-9.787300229E-1
3.431779234E1,-3.113412142E0,-4.585630417E0,-1.258803487E0
3.433660094E1,-3.873916864E0,-4.787515163E0,-1.342184186E0
3.435540953E1,-4.410622597E0,-4.445440769E0,-1.169925213E0
3.437421812E1,-4.451854706E0,-3.581702948E0,-7.661551833E-1
3.439302672E1,-3.786871195E0,-2.243870974E0,-4.256078303E-1
3.441183531E1,-2.782027483E0,-8.789328337E-1,-3.177932799E-1
3.443064391E1,-1.825135231E0,1.595838517E-1,-2.420482337E-1
3.444945250E1,-1.087460876E0,8.431219459E-1,-1.572931744E-2
3.446826109E1,-7.426375747E-1,1.132358074E0,3.108448982E-1
3.448706969E1,-7.188144922E-1,9.985825419E-1,5.454102755E-1
3.450587828E1,-1.045006990E0,4.075878263E-1,5.713712573E-1
3.452468688E1,-1.265828252E0,-3.016058207E-1,4.525614679E-1
3.454349542E1,-1.178477049E0,-7.842515111E-1,3.010713458E-1
3.456230401E1,-9.429954290E-1,-9.183325171E-1,1.840940863E-1
3.458111260E1,-5.483881235E-1,-7.662315369E-1,4.909684882E-2
3.459992120E1,3.863608837E-2,-6.254312396E-1,-1.695101149E-2
3.461872979E1,6.439857483E-1,-3.520007432E-1,1.122431830E-2
3.463753839E1,1.154730439E0,-5.955760833E-3,4.756972939E-2
3.465634698E1,1.562165499E0,2.829749882E-1,4.146125913E-2
3.467515557E1,1.078679919E0,2.687651634E0,-4.138490185E-2
3.469396417E1,-2.090548277E0,6.156118870E0,-2.817533016E-1
3.471277276E1,-1.709379673E0,3.432885170E0,-2.677038014E-1
3.473158135E1,4.931064546E-1,5.016583204E-1,-1.122431830E-1
3.475038995E1,1.009959579E0,-7.799755931E-1,-2.640387416E-1
3.476919849E1,1.614163816E-1,-1.144345999E0,-5.215108395E-1
3.478800708E1,-8.037222624E-1,-1.637605190E0,-5.703786016E-1
3.480681568E1,-7.444701195E-1,-2.057562590E0,-4.946335554E-1
3.482562427E1,-5.767925382E-1,-1.219480157E0,6.956022978E-2
3.484443286E1,-4.625640810E-1,1.210852027E0,7.659261227E-1
3.486324146E1,1.827960461E-1,3.412421942E0,1.079596162E0
3.488205005E1,7.343910933E-1,3.818635225E0,1.161144257E0
3.490085865E1,1.027368784E0,3.661036730E0,1.223450661E0
3.491966724E1,1.170917869E0,3.238941193E0,1.368832350E0
3.493847578E1,1.461070299E0,2.519668579E0,1.574382424E0
3.495728438E1,2.139110804E0,1.391051888E0,1.728315949E0
3.497609297E1,2.980552912E0,2.686200738E-1,1.764050484E0
3.499490156E1,3.523596048E0,-7.170583010E-1,1.881638646E0
3.501371016E1,3.974172354E0,1.653716207E0,1.909737587E0
3.503251875E1,2.900226355E0,4.325027466E0,1.577131271E0
3.505132734E1,1.847431183E0,2.064205647E0,6.599441171E-1
3.507013594E1,1.283313751E0,-7.674532533E-1,1.908134073E-1
3.508894453E1,9.726979136E-1,-2.315645695E0,2.546469569E-1
3.510775307E1,9.491039515E-1,-2.979942083E0,4.455367327E-1
3.512656167E1,1.301944613E0,-2.567314625E0,4.550048411E-1
3.514537026E1,1.891412139E0,-8.065474629E-1,2.949628830E-1
3.516417885E1,2.103376150E0,1.290567517E0,1.877591759E-1
3.518298745E1,2.075277090E0,2.124984980E0,7.017108053E-2
3.520179604E1,1.822691917E0,1.447249889E0,1.627144367E-1
3.522060464E1,6.048914790E-1,6.296308041E-1,4.647783935E-1
3.523941318E1,-5.841227174E-1,1.044396043E0,5.698441267E-1
3.525822177E1,-4.503471553E-1,1.847660303E0,6.691068411E-1
3.527703036E1,1.082726792E-1,1.627755284E0,8.755732179E-1
3.529583896E1,5.085303262E-2,8.483141065E-1,8.749623299E-1
3.531464755E1,-3.217637837E-1,6.381826997E-1,6.666634083E-1
3.533345609E1,-9.903361201E-1,1.626380831E-1,1.941730678E-1
3.535226469E1,-1.805282712E0,-1.137321234E0,-5.205945969E-1
3.537107328E1,-2.594802856E0,-3.001626968E0,-1.026376128E0
3.538988188E1,-3.163806915E0,-4.992454529E0,-1.356233597E0
3.540869047E1,-3.803669453E0,-6.448791027E0,-1.682426095E0
3.542749906E1,-4.480259418E0,-6.960375309E0,-1.780467033E0
3.544630760E1,-4.593876839E0,-6.240491867E0,-1.548955917E0
3.546511620E1,-3.848261356E0,-2.375508547E0,-1.424648523E0
3.548392479E1,-3.177245617E0,9.964445829E-1,-1.358982444E0
3.550273339E1,-2.743544102E0,2.132009745E0,-1.118003249E0
3.552154198E1,-2.394750357E0,2.443923473E0,-8.400676847E-1
3.554035057E1,-1.989453197E0,1.845522285E0,-4.958552718E-1
3.555915912E1,-1.523605824E0,4.592044353E-1,-2.289150059E-1
3.557796771E1,-1.210852027E0,-9.226084352E-1,-4.291202128E-2
3.559677630E1,-1.063637733E0,-2.086272478E0,6.864395738E-2
3.561558490E1,-9.152019024E-1,-2.898699284E0,7.566870749E-2
3.563439344E1,-6.549809575E-1,-3.211224079E0,6.070294604E-2
3.565320203E1,-3.440597057E-1,-2.758815289E0,1.758476496E-1
3.567201063E1,4.016320780E-2,-1.606451988E0,3.224509954E-1
3.569081922E1,4.479037523E-1,-2.209739983E-1,3.801760674E-1
3.570962781E1,6.522321701E-1,6.131379604E-1,3.203130364E-1
3.572843641E1,-1.699682474E-1,5.722111464E-1,1.883700192E-1
3.574724495E1,-1.570641041E0,1.360509515E0,2.256316990E-1
3.576605354E1,2.267770469E-1,2.348020554E0,2.589228749E-1
3.578486214E1,1.042945385E0,-4.121691883E-1,-7.711946964E-2
3.580367073E1,1.371581197E0,-1.150148988E0,-5.712949038E-1
3.582247927E1,1.142513394E0,5.648810267E-1,-6.714738607E-1
3.584128787E1,-1.055238619E-1,1.474432588E0,-5.783196688E-1
3.586009646E1,-8.400676847E-1,9.423846006E-1,-5.288410187E-1
3.587890505E1,4.558447599E-1,4.335488379E-1,-3.022166789E-1
3.589771359E1,1.346841812E0,8.922951221E-1,2.766374648E-1
3.591652219E1,1.103724599E0,1.781077862E0,7.066739202E-1
3.593533078E1,1.553079188E-1,2.800963640E0,7.805864215E-1
3.595413938E1,-1.919587553E-1,3.121658564E0,7.439355850E-1
3.597294792E1,2.145601064E-1,2.792106390E0,9.314656854E-1
3.599175651E1,9.225320816E-1,2.421016693E0,1.039585710E0
3.601056510E1,1.868810892E0,2.004037142E0,9.140565395E-1
3.602937370E1,2.825092316E0,1.554148197E0,8.700755835E-1
3.604818229E1,3.499467611E0,1.265217423E0,1.008737922E0
3.606699083E1,3.596897840E0,8.324320912E-1,1.345009327E0
3.608579943E1,3.280173540E0,1.727170646E-1,1.732897282E0
3.610460802E1,2.958867788E0,9.258917570E-1,1.824829817E0
3.612341656E1,2.615266085E0,4.553790092E0,1.639437675E0
3.614222516E1,1.858121037E0,5.525113583E0,1.108306050E0
3.616103375E1,1.095783591E0,3.993643045E0,3.636831939E-1
3.617984234E1,6.271874309E-1,1.747786760E0,3.071798086E-1
3.619865094E1,5.541911721E-1,-9.147437662E-2,9.369633198E-1
3.621745948E1,7.805100679E-1,-8.844304681E-1,1.285757065E0
3.623626807E1,1.200543880E0,-1.002934813E0,1.142207980E0
3.625507667E1,1.524292946E0,-5.399126410E-1,9.439880848E-1
3.627388521E1,1.232918859E0,-2.585411072E-1,6.153522730E-1
3.629269380E1,5.767925382E-1,-5.399126410E-1,1.801235825E-1
3.631150240E1,3.223746419E-1,-3.101576865E-1,-1.308740228E-1
3.633031099E1,4.176668227E-1,2.142546773E-1,-1.498102844E-1
3.634911953E1,4.915793240E-1,5.297572613E-1,-9.177979827E-2
3.636792812E1,3.660502136E-1,7.001836896E-1,-6.245913357E-2
3.638673672E1,2.000524849E-2,8.675557971E-1,-6.566607859E-3
3.640554526E1,-6.033644080E-1,7.866185308E-1,1.205659807E-1
3.642435385E1,-1.392579079E0,1.385096163E-1,1.456107199E-1
3.644316245E1,-2.152854919E0,-8.364789486E-1,-1.110214889E-1
3.646197104E1,-2.881290197E0,-2.420711279E0,-5.477772951E-1
3.648077958E1,-3.245965958E0,-4.548674107E0,-1.074022174E0
3.649958818E1,-3.514738798E0,-6.261260986E0,-1.306449533E0
3.651839677E1,-3.960046530E0,-6.046547890E0,-1.303700805E0
3.653720531E1,-4.170483112E0,-2.679405212E0,-1.347070932E0
3.655601391E1,-3.648208857E0,1.885990947E-1,-1.188861489E0
3.657482250E1,-3.154949665E0,1.683647752E0,-9.457442760E-1
3.659363109E1,-2.723080635E0,2.517530680E0,-9.600991607E-1
3.661243964E1,-2.059089661E0,2.994602442E0,-9.454388618E-1
3.663124823E1,-1.751833558E0,2.421932936E0,-8.452599049E-1
3.665005682E1,-1.965935588E0,4.961606860E-1,-7.127060294E-1
3.666886536E1,-1.923481703E0,-1.467484236E0,-5.606050491E-1
3.668767396E1,-1.637223363E0,-2.299763680E0,-3.709369898E-1
3.670648255E1,-1.185807228E0,-2.413991928E0,-2.704526186E-1
3.672529109E1,-7.533273697E-1,-2.278994799E0,-1.733279079E-1
3.674409969E1,-3.504736125E-1,-1.803755641E0,1.855448633E-2
3.676290828E1,5.024218559E-2,-1.260712385E0,2.210503519E-1
3.678171682E1,2.316638231E-1,-7.271373272E-1,4.354577363E-1
3.680052542E1,1.363716573E-1,-2.328855246E-1,4.754682481E-1
3.681933401E1,1.989834905E-1,1.088377118E0,9.063446522E-2
3.683814255E1,2.799207568E-1,2.829673529E0,-5.085303262E-2
3.685695115E1,2.606790662E-1,2.040077209E0,-1.238492802E-1
3.687575974E1,9.524635673E-1,3.568875194E-1,-4.576773047E-1
3.689456828E1,1.241776109E0,-1.314848661E-1,-4.836383164E-1
3.691337688E1,5.025745630E-1,1.058292910E-1,-3.315373361E-1
3.693218547E1,-5.627430081E-1,3.730749488E-1,-7.178982496E-1
3.695099401E1,1.847812906E-2,2.649549842E-1,-8.461761475E-1
3.696980260E1,7.459971905E-1,9.086353332E-2,-6.329904795E-1
3.698861120E1,5.990884304E-1,4.882196784E-1,-2.652604282E-1
3.700741974E1,1.598816395E0,6.116108298E-1,2.686964273E-1
3.702622833E1,2.000143051E0,2.756448388E-1,8.123505116E-1
3.704503693E1,1.984871864E0,-2.478512824E-1,1.237194777E0
3.706384547E1,1.826967835E0,-6.623874903E-1,1.402428985E0
3.708265406E1,1.639437675E0,-8.987854123E-1,1.299195766E0
3.710146266E1,1.660206437E0,-9.384904504E-1,9.412392974E-1
3.712027120E1,1.986398935E0,1.008050680E0,5.893912315E-1
3.713907979E1,2.287852049E0,3.696465731E0,5.050943494E-1
3.715788839E1,2.349853039E0,4.061141491E0,5.368583798E-1
3.717669693E1,2.174539804E0,2.946039915E0,6.544464827E-1
3.719550552E1,1.906683326E0,1.599961638E0,7.424085140E-1
3.721431412E1,1.706019998E0,6.403206587E-1,8.377006650E-1
3.723312266E1,1.499859095E0,-4.546230733E-1,8.431982994E-1
3.725193125E1,1.254909396E0,-1.336762905E0,8.935931921E-1
3.727073984E1,9.818606377E-1,-1.807420731E0,1.044472456E0
3.728954839E1,8.528954983E-1,-1.885303736E0,1.052718878E0
3.730835698E1,1.010875821E0,-1.179775119E0,9.045884609E-1
3.732716557E1,1.435414672E0,1.498102844E-1,7.039251328E-1
3.734597412E1,1.948831797E0,1.576444030E0,5.408288836E-1
3.736478271E1,1.988231421E0,1.993347287E0,2.848838866E-1
3.738359130E1,1.357837081E0,9.857547879E-1,-2.886253223E-2
3.740239984E1,5.740436912E-1,-5.573981255E-2,-1.375933439E-1
3.742120844E1,1.931804419E-1,-1.382041872E-1,-1.206423342E-2
3.744001698E1,8.811471611E-2,4.552339315E-1,9.155073017E-2
3.745882557E1,-6.215370819E-2,1.020573020E0,1.324774921E-1
3.747763417E1,-2.765611112E-1,8.754968047E-1,2.128039151E-1
3.749644271E1,-5.361711979E-1,2.057028115E-1,2.894652486E-1
3.751525130E1,-9.097042680E-1,-5.441885591E-1,2.213557810E-1
3.753405990E1,-1.661046386E0,-1.767715573E0,-3.008422814E-2
3.755286844E1,-2.898393869E0,-3.050494909E0,-5.129590034E-1
3.757167703E1,-3.531842470E0,-4.198964119E0,-1.050199151E0
3.759048557E1,-3.503743410E0,-4.973518372E0,-1.328745484E0
3.760929417E1,-3.638740778E0,-4.763692379E0,-1.236812949E0
3.762810276E1,-3.512906313E0,-3.363630533E0,-1.001942158E0
3.764691130E1,-3.036750793E0,-8.230403066E-1,-8.532009125E-1
3.766571990E1,-2.532496452E0,9.839222431E-1,-7.548545003E-1
3.768452849E1,-2.190421820E0,1.782299638E0,-6.284091473E-1
3.770333703E1,-1.915235281E0,2.336108923E0,-5.297572613E-1
3.772214562E1,-1.963797569E0,2.458889246E0,-5.532749295E-1
3.774095417E1,-1.977847099E0,1.368450522E0,-7.111788988E-1
3.775976276E1,-1.725261688E0,-2.466295809E-1,-8.687775135E-1
3.777857135E1,-1.323553324E0,-1.314161539E0,-8.993198872E-1
3.779737990E1,-9.353598356E-1,-1.344703913E0,-7.481352091E-1
3.781618849E1,-7.108734846E-1,-1.291560173E0,-5.865660906E-1
3.783499703E1,-3.034383655E-1,-1.317215800E0,-3.883461356E-1
3.785380562E1,1.400367320E-1,-1.493445158E0,-8.444963396E-2
3.787261422E1,3.061871827E-1,-1.259185314E0,2.699181437E-1
3.789142276E1,-1.847812906E-2,-6.797966361E-1,5.637356639E-1
3.791023135E1,-8.162446618E-1,-9.849911928E-2,5.643464923E-1
3.792903990E1,-8.073873520E-1,1.982352018E0,2.140256017E-1
3.794784849E1,-4.271349311E-1,3.010179043E0,1.104869992E-1
3.796665708E1,2.469350100E-1,1.335159421E0,-1.473668963E-1
3.798546562E1,1.062187076E0,-3.669664860E-1,-3.629959822E-1
3.800427422E1,1.053635120E0,-5.426614285E-1,-2.845021188E-1
3.802308276E1,2.472404242E-1,-2.875563502E-1,-3.257342875E-1
3.804189135E1,-3.281776905E-1,2.249445021E-1,-7.539382577E-1
3.806069990E1,7.939487100E-1,5.187620521E-1,-9.161182046E-1
3.807950849E1,2.126282930E0,-8.567132801E-2,-4.928010404E-1
3.809831708E1,1.855983019E0,-4.640912116E-1,2.131093442E-1
