"Time (s)","Acceleration x (m/s^2)","Acceleration y (m/s^2)","Acceleration z (m/s^2)"
1.163000300E-2,1.250249863E0,1.213161111E0,1.011326504E1
3.043870100E-2,1.420140266E0,5.324030519E-1,1.134556866E1
4.924849300E-2,2.032702923E0,2.823530734E-1,1.167099285E1
6.805719100E-2,2.317448616E0,9.571290761E-2,1.127737331E1
8.686583700E-2,1.217946768E0,1.722832322E-1,1.020299530E1
1.056744820E-1,1.623530149E0,6.317051649E-1,9.738788605E0
1.244831800E-1,3.397808075E0,1.018146038E0,8.897710800E0
1.432918260E-1,3.958925009E0,6.388836503E-1,9.087940216E0
1.621005240E-1,3.702893019E0,-2.285145670E-1,9.209974289E0
1.809091700E-1,3.719642878E0,-5.395814776E-1,9.747162819E0
1.997178680E-1,3.251846075E0,-1.794617027E-1,9.920642853E0
2.185265140E-1,3.026920557E0,-5.335994363E-1,9.522237778E0
2.373352120E-1,4.155136585E0,-1.032503009E0,8.956335068E0
2.561438570E-1,4.936393261E0,-1.170090318E0,8.080561638E0
2.749525030E-1,5.119443893E0,-1.546959877E0,7.503891945E0
2.937612010E-1,4.100101471E0,-1.765903115E0,7.682157040E0
3.125698470E-1,2.840280533E0,-1.765903115E0,7.970492363E0
3.313785450E-1,2.985046148E0,-1.777867198E0,8.575876236E0
3.501871910E-1,3.686143398E0,-2.086541414E0,8.798408508E0
3.689958890E-1,4.214957237E0,-2.782852650E0,8.110472679E0
3.878045350E-1,4.999803066E0,-3.596412420E0,6.622136593E0
4.066131800E-1,6.392425537E0,-3.775874138E0,5.185246468E0
4.254218780E-1,6.233303070E0,-3.119044304E0,5.484349728E0
4.442305240E-1,5.783452511E0,-2.366501570E0,6.397211552E0
4.630392220E-1,6.297909260E0,-2.042274237E0,7.422535896E0
4.818478680E-1,8.282755852E0,-1.261017561E0,7.518248558E0
5.006565140E-1,9.646664619E0,-6.089733839E-1,7.262216568E0
5.194652120E-1,9.464810371E0,-1.627119333E-1,6.965506554E0
5.382738570E-1,9.482755661E0,9.332008660E-2,6.031109333E0
5.570825550E-1,1.020897770E1,1.076770201E-2,4.914857864E0
5.758912010E-1,1.091844940E1,-2.117647976E-1,3.580859184E0
5.946998470E-1,9.760323524E0,-8.769695163E-1,1.124626637E0
6.135085450E-1,8.683553696E0,-1.691725612E0,8.733802438E-1
6.323171910E-1,8.745766640E0,-2.313859463E0,1.462014675E0
6.511258890E-1,8.567501068E0,-3.020938635E0,1.775474429E0
6.699345350E-1,7.807780266E0,-3.759124279E0,1.792224169E0
6.887431800E-1,1.011924744E1,-2.829512835E0,1.295713425E0
7.075518780E-1,6.034698486E0,-1.787438512E0,3.036491871E0
7.263605240E-1,1.925025821E0,-2.529213428E0,4.795216560E0
7.451691700E-1,2.695514679E0,-4.124029636E0,4.759324074E0
7.639778680E-1,3.573680639E0,-5.531009674E0,2.693121910E0
7.827865140E-1,2.038684845E0,-6.500102520E0,2.973082066E0
8.015952120E-1,1.747956991E0,-7.361518860E0,3.207578659E0
8.204038570E-1,4.698307037E0,-8.450253487E0,-2.151147604E0
8.392125030E-1,5.777470112E0,-9.369096756E0,-2.234896421E0
8.580212010E-1,5.842076302E0,-8.012366295E0,-2.428714931E-1
8.768298470E-1,5.490331650E0,-8.633303642E0,8.877372146E-1
8.956385450E-1,5.405386448E0,-9.320044518E0,7.477570772E-1
9.144471910E-1,5.933003902E0,-9.159725189E0,6.149554253E-1
9.332558370E-1,6.534798622E0,-9.735198975E0,-1.785045743E0
9.520645350E-1,6.275177479E0,-1.098903847E1,-5.556134224E0
9.708731800E-1,2.888136864E0,-8.549555779E0,-2.670390129E0
9.896818260E-1,9.379864931E-1,-6.787241459E0,5.659025311E-1
1.008490524E0,-4.366901219E-1,-6.519245148E0,8.027920127E-1
1.027299170E0,-6.424728632E-1,-8.014759064E0,-6.293123364E-1
1.046107816E0,-4.594219327E-1,-9.410971642E0,-2.373680115E0
1.064916514E0,-7.298108935E-2,-1.084546852E1,-1.879562140E0
1.083725160E0,-1.088734269E-1,-1.121276665E1,-9.475577474E-1
1.102533805E0,-5.060819983E-1,-1.156451225E1,-3.445664644E-1
1.121342503E0,-1.038485050E0,-1.145085239E1,-1.200000525E0
1.140151149E0,-9.714859724E-1,-1.282911873E1,-1.714457393E0
1.158959795E0,-3.876372576E-1,-1.613360596E1,-2.157129526E0
1.177768493E0,-1.004985452E0,-1.914497375E1,-7.441678643E-1
1.196577139E0,-1.639083475E-1,-1.687298965E1,-5.407779217E-1
1.215385837E0,1.322034478E0,-1.205264759E1,-1.399801254E0
1.234194482E0,1.452443361E0,-8.703892708E0,-1.556531072E0
1.253003128E0,1.021735311E0,-7.292127132E0,-1.417747378E0
1.271811774E0,2.596212626E-1,-7.562515736E0,-1.503889084E0
1.290620472E0,-5.754738450E-1,-8.931210518E0,-1.672582984E0
1.309429118E0,-1.190429211E0,-1.013479996E1,-1.732403636E0
1.328237764E0,-1.568495274E0,-1.048295593E1,-1.490728498E0
1.347046462E0,-1.601994753E0,-9.930213928E0,-1.195214868E0
1.365855107E0,-1.448854089E0,-9.309276581E0,-1.149751306E0
1.384663753E0,-1.300499082E0,-9.278169632E0,-1.165304661E0
1.403472451E0,-1.067198873E0,-9.572486877E0,-1.116251707E0
1.422281097E0,-8.614161611E-1,-9.700503349E0,-1.237089276E0
1.441089743E0,-8.362914920E-1,-9.717252731E0,-1.332802176E0
1.459898441E0,-9.248259664E-1,-9.769894600E0,-1.422533035E0
1.478707087E0,-9.726824164E-1,-9.639486313E0,-1.174875975E0
1.497515732E0,-1.036092162E0,-9.602396965E0,-1.037288666E0
1.516324430E0,-1.142572761E0,-9.519845009E0,-1.062413216E0
1.535133076E0,-1.280160069E0,-9.546165466E0,-1.124626637E0
1.553941722E0,-1.246660590E0,-9.629914284E0,-1.094716311E0
1.572750368E0,-1.060020447E0,-9.578469276E0,-1.099501967E0
1.591559066E0,-8.518448472E-1,-9.538987160E0,-1.057627559E0
1.610367712E0,-7.668996453E-1,-9.596415520E0,-9.774680734E-1
1.629176357E0,-8.171489239E-1,-9.639486313E0,-9.583254457E-1
1.647985055E0,-9.104689956E-1,-9.716055870E0,-1.008574724E0
1.666793701E0,-9.786644578E-1,-9.762716293E0,-1.033699393E0
1.685602347E0,-1.039681435E0,-9.745966911E0,-1.153340459E0
1.704410993E0,-1.076770186E0,-9.631111145E0,-1.270588875E0
1.723219639E0,-1.180858016E0,-9.588040352E0,-1.251446247E0
1.742028337E0,-1.261017561E0,-9.578469276E0,-1.155733347E0
1.760836982E0,-1.204786181E0,-9.537791252E0,-1.080359459E0
1.779645628E0,-1.008574724E0,-9.535398483E0,-1.039681435E0
1.798454326E0,-7.920243144E-1,-9.585647583E0,-1.018146038E0
1.817262972E0,-6.257231236E-1,-9.665806770E0,-1.088734269E0
1.836071618E0,-5.467599630E-1,-9.754341125E0,-1.103091240E0
1.854880264E0,-5.647061467E-1,-9.768698692E0,-1.091127157E0
1.873688910E0,-6.675975323E-1,-9.755537987E0,-1.094716311E0
1.892497607E0,-7.704889178E-1,-9.723235130E0,-1.134197950E0
1.911306253E0,-9.355936646E-1,-9.690931320E0,-1.074377418E0
1.930114899E0,-1.027717352E0,-9.665806770E0,-9.738788009E-1
1.948923545E0,-9.499505758E-1,-9.678967476E0,-9.678967595E-1
1.967732243E0,-8.638089895E-1,-9.739984512E0,-9.547362328E-1
1.986540889E0,-8.554341197E-1,-9.736394882E0,-9.020941257E-1
2.005349535E0,-8.602197170E-1,-9.689735413E0,-9.631111026E-1
2.024158180E0,-7.836494446E-1,-9.620343208E0,-1.075573802E0
2.042966878E0,-7.513462901E-1,-9.589237213E0,-9.810572863E-1
2.061775524E0,-7.800601721E-1,-9.577272415E0,-7.932206988E-1
2.080584170E0,-7.250252366E-1,-9.598808289E0,-7.932206988E-1
2.099392816E0,-6.556333899E-1,-9.611968994E0,-8.745766878E-1
2.118201514E0,-5.994020700E-1,-9.605986595E0,-9.308080077E-1
2.137010160E0,-5.491527915E-1,-9.605986595E0,-9.882357717E-1
2.155818805E0,-5.647061467E-1,-9.634700775E0,-1.115055323E0
2.174627451E0,-5.838487148E-1,-9.653842926E0,-1.200000525E0
2.193436097E0,-5.419743061E-1,-9.656235695E0,-1.184447169E0
2.212244743E0,-5.491527915E-1,-9.674181938E0,-1.045663476E0
2.231053441E0,-5.730810165E-1,-9.702896118E0,-8.650053740E-1
2.249862087E0,-5.539384484E-1,-9.710074425E0,-8.949156404E-1
2.268670732E0,-5.575276613E-1,-9.729216576E0,-1.088734269E0
2.287479378E0,-5.216353536E-1,-9.659825325E0,-1.134197950E0
2.306288024E0,-5.024927258E-1,-9.656235695E0,-1.061216831E0
2.325096722E0,-4.857429862E-1,-9.656235695E0,-9.870393276E-1
2.343905368E0,-5.120640397E-1,-9.680164337E0,-9.846464992E-1
2.362714014E0,-5.898307562E-1,-9.674181938E0,-9.750752449E-1
2.381522660E0,-6.101697683E-1,-9.705288887E0,-9.427721500E-1
2.400331305E0,-6.364908218E-1,-9.707681656E0,-8.961120844E-1
2.419139951E0,-7.405785918E-1,-9.701699257E0,-8.291130662E-1
2.437948649E0,-8.769695163E-1,-9.684949875E0,-8.207381964E-1
2.456757295E0,-9.511470199E-1,-9.638289452E0,-8.315058947E-1
2.475565941E0,-1.000199914E0,-9.633503914E0,-9.008977413E-1
2.494374587E0,-1.062413216E0,-9.651450157E0,-9.571290612E-1
2.513183232E0,-9.619147182E-1,-9.615557671E0,-1.092323542E0
2.531991878E0,-8.434699774E-1,-9.625128746E0,-1.050449133E0
2.550800576E0,-8.099704385E-1,-9.781859398E0,-9.152546525E-1
2.569609222E0,-8.470591903E-1,-9.833304405E0,-7.776673436E-1
2.588417868E0,-9.308080077E-1,-9.891928673E0,-6.867401004E-1
2.607226514E0,-1.015753269E0,-9.838089943E0,-7.872386575E-1
2.626035160E0,-1.021735311E0,-9.544969559E0,-1.010967612E0
2.644843805E0,-8.422735929E-1,-9.186046600E0,-1.454836130E0
2.663652451E0,-7.704889178E-1,-9.364311218E0,-1.612762451E0
2.682461149E0,-7.621139884E-1,-9.856036186E0,-1.345962763E0
2.701269795E0,-6.245267391E-1,-9.921838760E0,-1.007378340E0
2.720078441E0,-5.491527915E-1,-9.628718376E0,-4.857429862E-1
2.738887087E0,-6.592226624E-1,-9.559326172E0,5.024927482E-2
2.757695732E0,-6.915257573E-1,-9.719645500E0,2.153540403E-1
2.776504378E0,-5.431707501E-1,-9.747162819E0,-1.986042857E-1
2.795313024E0,-2.297109663E-1,-9.416953087E0,-7.740781307E-1
2.814121670E0,-1.758724600E-1,-9.272188187E0,-1.070788145E0
2.832930368E0,-4.677968323E-1,-9.287740707E0,-8.362914920E-1
2.851739014E0,-8.291130662E-1,-9.494720459E0,-5.467599630E-1
2.870547660E0,-1.301695466E0,-1.000199890E1,-4.223332107E-1
2.889356305E0,-1.514656782E0,-1.055115128E1,-2.333002090E-1
2.908164951E0,-1.552941918E0,-1.041954613E1,4.426721856E-2
2.926973597E0,-1.170090318E0,-9.661021233E0,-3.708875179E-2
2.945782243E0,-5.443671346E-1,-9.387042999E0,-4.977070987E-1
2.964590889E0,-2.297109663E-1,-9.567701340E0,-8.590233326E-1
2.983399535E0,-1.890329868E-1,-9.694520950E0,-8.051848412E-1
3.002208232E0,-2.416750938E-1,-9.665806770E0,-6.269195080E-1
3.021016878E0,-4.223332107E-1,-9.641879082E0,-5.611169338E-1
3.039825524E0,-8.267202377E-1,-9.713663101E0,-6.436693072E-1
3.058634170E0,-1.112662554E0,-9.734002113E0,-8.171489239E-1
3.077442816E0,-1.062413216E0,-9.730413437E0,-8.422735929E-1
3.096251462E0,-8.338986635E-1,-9.708877563E0,-6.795616150E-1
3.115060107E0,-5.527420044E-1,-9.699306488E0,-6.293123364E-1
3.133868753E0,-3.876372576E-1,-9.662218094E0,-6.017948985E-1
3.152677399E0,-3.337987661E-1,-9.683753014E0,-5.479564071E-1
3.171486045E0,-3.337987661E-1,-9.775876999E0,-5.778666735E-1
3.190294691E0,-4.785645306E-1,-9.815358162E0,-7.334001660E-1
3.209103337E0,-6.065805554E-1,-9.799804688E0,-8.757730722E-1
3.227912035E0,-7.154539824E-1,-9.745966911E0,-8.673982024E-1
3.246720680E0,-7.668996453E-1,-9.720842361E0,-6.197410822E-1
3.265529326E0,-7.668996453E-1,-9.671789169E0,-3.361915946E-1
3.284337972E0,-7.250252366E-1,-9.657432556E0,-2.057827413E-1
3.303146618E0,-6.209374666E-1,-9.655039787E0,-1.734796464E-1
3.321955264E0,-4.331009090E-1,-9.664610863E0,-3.864408433E-1
3.340763910E0,-3.206382394E-1,-9.717252731E0,-6.735795736E-1
3.359572555E0,-3.672982752E-1,-9.755537987E0,-8.470591903E-1
3.378381201E0,-4.618147612E-1,-9.716055870E0,-8.003991842E-1
3.397189847E0,-5.515456200E-1,-9.713663101E0,-5.802595019E-1
3.415998493E0,-6.652047038E-1,-9.708877563E0,-3.828516304E-1
3.434807139E0,-6.592226624E-1,-9.726823807E0,-3.098705411E-1
3.453615785E0,-6.041877270E-1,-9.708877563E0,-3.912265003E-1
3.472424430E0,-5.180460811E-1,-9.683753014E0,-5.312066078E-1
3.491233076E0,-4.606183469E-1,-9.668199539E0,-6.448656917E-1
3.510041774E0,-4.031906128E-1,-9.723235130E0,-6.759724021E-1
3.528850420E0,-4.737788737E-1,-9.775876999E0,-5.599204898E-1
3.547659014E0,-5.623133183E-1,-9.754341125E0,-4.881358147E-1
3.566467712E0,-5.778666735E-1,-9.759127617E0,-4.845465720E-1
3.585276357E0,-6.257231236E-1,-9.722038269E0,-4.773681164E-1
3.604085003E0,-6.329016089E-1,-9.731609344E0,-4.797609448E-1
3.622893649E0,-6.161518097E-1,-9.696913719E0,-4.462614357E-1
3.641702295E0,-6.520441771E-1,-9.665806770E0,-3.601198196E-1
3.660510941E0,-7.010970116E-1,-9.716055870E0,-3.326023519E-1
3.679319587E0,-6.951149702E-1,-9.735198975E0,-3.481557071E-1
3.698128232E0,-6.747759581E-1,-9.751948357E0,-3.840480447E-1
3.716936878E0,-6.999006271E-1,-9.701699257E0,-3.314059377E-1
3.735745524E0,-7.334001660E-1,-9.675378799E0,-2.991028428E-1
3.754554170E0,-6.496513486E-1,-9.698110580E0,-3.026920557E-1
3.773362816E0,-6.364908218E-1,-9.729216576E0,-2.476571500E-1
3.792171462E0,-6.269195080E-1,-9.734002113E0,-2.213360965E-1
3.810980107E0,-6.137589812E-1,-9.748359680E0,-2.703889608E-1
3.829788753E0,-5.994020700E-1,-9.718449593E0,-3.876372576E-1
3.848597399E0,-5.228317380E-1,-9.726823807E0,-4.737788737E-1
3.867406045E0,-4.725824594E-1,-9.729216576E0,-4.737788737E-1
3.886214691E0,-5.419743061E-1,-9.710074425E0,-3.601198196E-1
3.905023337E0,-5.754738450E-1,-9.720842361E0,-3.170489967E-1
3.923831982E0,-6.149554253E-1,-9.730413437E0,-2.919243574E-1
3.942640628E0,-6.759724021E-1,-9.711270332E0,-2.799602449E-1
3.961449274E0,-7.010970116E-1,-9.706484795E0,-2.333002090E-1
3.980257920E0,-7.393822074E-1,-9.707681656E0,-2.045863420E-1
3.999066566E0,-7.417750359E-1,-9.699306488E0,-2.392822653E-1
4.017875212E0,-7.094719410E-1,-9.698110580E0,-2.560320199E-1
4.036683857E0,-6.783652306E-1,-9.708877563E0,-2.548356056E-1
4.055492503E0,-6.520441771E-1,-9.751948357E0,-2.584248483E-1
4.074301149E0,-6.963114142E-1,-9.731609344E0,-2.763710022E-1
4.093109795E0,-6.795616150E-1,-9.700503349E0,-3.290131092E-1
4.111918441E0,-6.664010882E-1,-9.725627899E0,-3.613162339E-1
4.130727087E0,-6.640082598E-1,-9.738788605E0,-3.732803464E-1
4.149535732E0,-6.532405615E-1,-9.725627899E0,-4.235295951E-1
4.168344378E0,-7.046862841E-1,-9.706484795E0,-4.594219327E-1
4.187153024E0,-6.652047038E-1,-9.700503349E0,-4.941178858E-1
4.205961670E0,-5.802595019E-1,-9.716055870E0,-5.587241054E-1
4.224770316E0,-4.869394004E-1,-9.774680138E0,-5.982056856E-1
4.243578962E0,-3.888336718E-1,-9.737591743E0,-6.412764788E-1
4.262387607E0,-3.589234054E-1,-9.696913719E0,-6.352944374E-1
4.281196253E0,-4.522434771E-1,-9.692128181E0,-5.048855543E-1
4.300004899E0,-5.670989752E-1,-9.692128181E0,-3.385843933E-1
4.318813545E0,-7.334001660E-1,-9.696913719E0,-2.368894368E-1
4.337622191E0,-8.279166222E-1,-9.689735413E0,-2.955136001E-1
4.356430837E0,-7.668996453E-1,-9.694520950E0,-5.108676553E-1
4.375239482E0,-6.735795736E-1,-9.710074425E0,-6.352944374E-1
4.394048128E0,-6.843472719E-1,-9.708877563E0,-5.156532526E-1
4.412856774E0,-6.604190469E-1,-9.676574707E0,-3.960121572E-1
4.431665420E0,-6.424728632E-1,-9.655039787E0,-3.613162339E-1
4.450474066E0,-5.934200287E-1,-9.674181938E0,-3.696911037E-1
4.469282712E0,-5.036891699E-1,-9.684949875E0,-4.534398913E-1
4.488091305E0,-4.558327198E-1,-9.708877563E0,-5.347958803E-1
4.506899951E0,-5.419743061E-1,-9.732806206E0,-5.371887088E-1
4.525708597E0,-6.329016089E-1,-9.726823807E0,-5.204389095E-1
4.544517243E0,-7.274180651E-1,-9.694520950E0,-4.139583111E-1
4.563325889E0,-7.692924738E-1,-9.713663101E0,-3.278166950E-1
4.582134535E0,-7.142575383E-1,-9.695717812E0,-3.589234054E-1
4.600943180E0,-6.257231236E-1,-9.710074425E0,-4.594219327E-1
4.619751826E0,-5.599204898E-1,-9.735198975E0,-5.300102234E-1
4.638560472E0,-5.826523304E-1,-9.711270332E0,-5.324030519E-1
4.657369118E0,-6.041877270E-1,-9.706484795E0,-5.204389095E-1
4.676177764E0,-6.388836503E-1,-9.701699257E0,-4.390829504E-1
4.694986410E0,-6.245267391E-1,-9.712467194E0,-3.924229145E-1
4.713795055E0,-6.029912829E-1,-9.696913719E0,-3.996013701E-1
4.732603701E0,-5.479564071E-1,-9.722038269E0,-4.366901219E-1
4.751412347E0,-5.670989752E-1,-9.754341125E0,-4.630111754E-1
4.770220993E0,-6.041877270E-1,-9.743574142E0,-4.953143001E-1
4.789029639E0,-6.412764788E-1,-9.756733894E0,-5.012963414E-1
4.807838285E0,-6.831508875E-1,-9.762716293E0,-4.450650215E-1
4.826646930E0,-6.508477330E-1,-9.755537987E0,-4.522434771E-1
4.845455524E0,-6.699903607E-1,-9.694520950E0,-4.677968323E-1
4.864264170E0,-6.281159520E-1,-9.690931320E0,-4.271188378E-1
4.883072816E0,-6.089733839E-1,-9.729216576E0,-3.457628787E-1
4.901881462E0,-5.982056856E-1,-9.716055870E0,-3.062812984E-1
4.920690107E0,-5.347958803E-1,-9.706484795E0,-3.481557071E-1
4.939498753E0,-5.312066078E-1,-9.723235130E0,-4.199403822E-1
4.958307399E0,-5.324030519E-1,-9.734002113E0,-4.103690982E-1
4.977116045E0,-6.209374666E-1,-9.701699257E0,-3.684946895E-1
4.995924691E0,-6.604190469E-1,-9.687342644E0,-3.146561682E-1
5.014733337E0,-6.568298340E-1,-9.713663101E0,-3.397808075E-1
5.033541982E0,-6.388836503E-1,-9.754341125E0,-3.912265003E-1
5.052350628E0,-6.568298340E-1,-9.749555588E0,-3.936193287E-1
5.071159222E0,-6.364908218E-1,-9.702896118E0,-3.720839322E-1
5.089967868E0,-6.197410822E-1,-9.676574707E0,-3.864408433E-1
5.108776514E0,-5.527420044E-1,-9.718449593E0,-3.577269912E-1
5.127585160E0,-5.300102234E-1,-9.716055870E0,-3.601198196E-1
5.146393805E0,-4.905286431E-1,-9.712467194E0,-4.067798555E-1
5.165202451E0,-4.929214716E-1,-9.739984512E0,-4.342973232E-1
5.184011097E0,-5.611169338E-1,-9.765109062E0,-4.199403822E-1
5.202819743E0,-6.544370055E-1,-9.720842361E0,-4.067798555E-1
5.221628389E0,-7.010970116E-1,-9.737591743E0,-3.780659735E-1
5.240437035E0,-6.329016089E-1,-9.774680138E0,-3.900300860E-1
5.259245628E0,-5.754738450E-1,-9.771091461E0,-4.366901219E-1
5.278054274E0,-5.754738450E-1,-9.743574142E0,-4.558327198E-1
5.296862920E0,-6.305087805E-1,-9.682557106E0,-3.972085714E-1
5.315671566E0,-7.250252366E-1,-9.651450157E0,-3.337987661E-1
5.334480212E0,-7.166503668E-1,-9.647860527E0,-2.823530734E-1
5.353288857E0,-6.317051649E-1,-9.677771568E0,-3.002992272E-1
5.372097503E0,-5.623133183E-1,-9.686145782E0,-3.828516304E-1
5.390906149E0,-5.024927258E-1,-9.698110580E0,-4.725824594E-1
5.409714795E0,-5.180460811E-1,-9.725627899E0,-5.431707501E-1
5.428523441E0,-5.826523304E-1,-9.719645500E0,-5.252245665E-1
5.447332087E0,-6.329016089E-1,-9.716055870E0,-4.761717021E-1
5.466140680E0,-6.293123364E-1,-9.737591743E0,-4.510470629E-1
5.484949326E0,-5.778666735E-1,-9.718449593E0,-4.570291340E-1
5.503757972E0,-5.431707501E-1,-9.714859962E0,-4.785645306E-1
5.522566618E0,-5.192425251E-1,-9.719645500E0,-5.312066078E-1
5.541375264E0,-5.491527915E-1,-9.722038269E0,-5.826523304E-1
5.560183910E0,-6.317051649E-1,-9.696913719E0,-5.599204898E-1
5.578992555E0,-6.149554253E-1,-9.686145782E0,-5.168496966E-1
5.597801149E0,-5.982056856E-1,-9.725627899E0,-4.594219327E-1
5.616609795E0,-5.814558864E-1,-9.737591743E0,-4.749752879E-1
5.635418441E0,-5.312066078E-1,-9.692128181E0,-5.383850932E-1
5.654227087E0,-5.252245665E-1,-9.695717812E0,-5.706881881E-1
5.673035732E0,-5.395814776E-1,-9.725627899E0,-5.587241054E-1
5.691844378E0,-5.156532526E-1,-9.744770050E0,-5.826523304E-1
5.710653024E0,-5.228317380E-1,-9.741181374E0,-5.491527915E-1
5.729461670E0,-5.850451589E-1,-9.747162819E0,-4.761717021E-1
5.748270264E0,-6.197410822E-1,-9.682557106E0,-5.120640397E-1
5.767078910E0,-6.125625968E-1,-9.676574707E0,-5.575276613E-1
5.785887555E0,-5.970092416E-1,-9.698110580E0,-5.467599630E-1
5.804696201E0,-5.850451589E-1,-9.695717812E0,-5.144568682E-1
5.823504847E0,-5.694918036E-1,-9.684949875E0,-4.929214716E-1
5.842313493E0,-5.778666735E-1,-9.736394882E0,-4.582255483E-1
5.861122087E0,-6.185446382E-1,-9.731609344E0,-4.677968323E-1
5.879930732E0,-6.484549642E-1,-9.700503349E0,-5.060819983E-1
5.898739378E0,-6.173482537E-1,-9.712467194E0,-5.264210105E-1
5.917548024E0,-5.623133183E-1,-9.716055870E0,-6.017948985E-1
5.936356670E0,-5.443671346E-1,-9.748359680E0,-6.233302951E-1
5.955165316E0,-5.862415433E-1,-9.725627899E0,-6.269195080E-1
5.973973962E0,-5.922235847E-1,-9.719645500E0,-6.269195080E-1
5.992782555E0,-6.197410822E-1,-9.693324089E0,-6.077769399E-1
6.011591201E0,-6.089733839E-1,-9.687342644E0,-5.587241054E-1
6.030399847E0,-5.850451589E-1,-9.689735413E0,-5.335994363E-1
6.049208493E0,-5.419743061E-1,-9.686145782E0,-5.491527915E-1
6.068017139E0,-5.419743061E-1,-9.681360245E0,-5.635097623E-1
6.086825785E0,-5.144568682E-1,-9.714859962E0,-5.994020700E-1
6.105634378E0,-5.252245665E-1,-9.713663101E0,-6.424728632E-1
6.124443024E0,-5.359922647E-1,-9.725627899E0,-6.699903607E-1
6.143251670E0,-5.347958803E-1,-9.688538551E0,-6.759724021E-1
6.162060316E0,-5.539384484E-1,-9.699306488E0,-6.448656917E-1
6.180868962E0,-5.575276613E-1,-9.723235130E0,-6.077769399E-1
6.199677555E0,-5.611169338E-1,-9.731609344E0,-6.041877270E-1
6.218486201E0,-5.670989752E-1,-9.710074425E0,-6.544370055E-1
6.237294847E0,-5.515456200E-1,-9.689735413E0,-7.417750359E-1
6.256103493E0,-5.706881881E-1,-9.700503349E0,-7.776673436E-1
6.274912139E0,-5.850451589E-1,-9.732806206E0,-7.334001660E-1
6.293720732E0,-5.934200287E-1,-9.695717812E0,-6.735795736E-1
6.312529378E0,-5.359922647E-1,-9.677771568E0,-6.448656917E-1
6.331338024E0,-5.587241054E-1,-9.713663101E0,-6.915257573E-1
6.350146670E0,-5.623133183E-1,-9.716055870E0,-8.159525394E-1
6.368955316E0,-5.335994363E-1,-9.755537987E0,-9.367900491E-1
6.387763962E0,-5.766702294E-1,-9.729216576E0,-9.188438654E-1
6.406572555E0,-5.563312769E-1,-9.711270332E0,-7.908278704E-1
6.425381201E0,-5.264210105E-1,-9.671789169E0,-6.640082598E-1
6.444189847E0,-4.725824594E-1,-9.647860527E0,-5.443671346E-1
6.462998493E0,-4.953143001E-1,-9.682557106E0,-3.852444589E-1
6.481807087E0,-4.917250574E-1,-9.672985077E0,-3.302095234E-1
6.500615732E0,-5.264210105E-1,-9.690931320E0,-5.084748268E-1
6.519424378E0,-5.790630579E-1,-9.647860527E0,-7.202396393E-1
6.538233024E0,-5.970092416E-1,-9.638289452E0,-7.609176040E-1
6.557041670E0,-6.376872063E-1,-9.690931320E0,-6.675975323E-1
6.575850264E0,-6.711867452E-1,-9.716055870E0,-6.652047038E-1
6.594658910E0,-6.161518097E-1,-9.706484795E0,-6.544370055E-1
6.613467555E0,-5.395814776E-1,-9.705288887E0,-5.850451589E-1
6.632276201E0,-5.264210105E-1,-9.716055870E0,-5.850451589E-1
6.651084795E0,-5.060819983E-1,-9.723235130E0,-6.939185858E-1
6.669893441E0,-5.264210105E-1,-9.700503349E0,-7.561319470E-1
6.688702087E0,-5.826523304E-1,-9.699306488E0,-7.250252366E-1
6.707510732E0,-6.340979934E-1,-9.678967476E0,-6.544370055E-1
6.726319326E0,-6.173482537E-1,-9.706484795E0,-6.604190469E-1
6.745127972E0,-5.132604837E-1,-9.688538551E0,-6.137589812E-1
6.763936618E0,-5.168496966E-1,-9.684949875E0,-5.407779217E-1
6.782745264E0,-6.173482537E-1,-9.712467194E0,-6.460621357E-1
6.801553910E0,-6.795616150E-1,-9.722038269E0,-8.099704385E-1
6.820362503E0,-5.718846321E-1,-9.678967476E0,-8.901300430E-1
6.839171149E0,-5.240281820E-1,-9.678967476E0,-7.728816867E-1
6.857979795E0,-5.324030519E-1,-9.708877563E0,-6.113662124E-1
6.876788441E0,-6.424728632E-1,-9.744770050E0,-5.874379873E-1
6.895597035E0,-7.022934556E-1,-9.711270332E0,-6.915257573E-1
6.914405680E0,-7.154539824E-1,-9.700503349E0,-8.159525394E-1
6.933214326E0,-6.687939167E-1,-9.712467194E0,-9.224331379E-1
6.952022972E0,-5.790630579E-1,-9.729216576E0,-9.535398483E-1
6.970831566E0,-5.754738450E-1,-9.718449593E0,-8.386843204E-1
6.989640212E0,-6.735795736E-1,-9.723235130E0,-7.286145091E-1
7.008448857E0,-6.568298340E-1,-9.751948357E0,-8.853443861E-1
7.027257503E0,-4.642075896E-1,-9.678967476E0,-9.379864931E-1
7.046066097E0,-4.079762697E-1,-9.649057388E0,-7.094719410E-1
7.064874743E0,-4.570291340E-1,-9.699306488E0,-5.778666735E-1
7.083683389E0,-5.407779217E-1,-9.664610863E0,-6.855437160E-1
7.102491982E0,-5.754738450E-1,-9.610772133E0,-7.956135273E-1
7.121300628E0,-5.659025311E-1,-9.655039787E0,-7.716853023E-1
7.140109274E0,-5.383850932E-1,-9.672985077E0,-7.764709592E-1
7.158917920E0,-4.713860750E-1,-9.671789169E0,-8.626125455E-1
7.177726514E0,-4.354937077E-1,-9.728020668E0,-8.542376757E-1
7.196535160E0,-5.312066078E-1,-9.738788605E0,-8.662018180E-1
7.215343805E0,-5.910272002E-1,-9.690931320E0,-9.296116233E-1
7.234152451E0,-5.766702294E-1,-9.664610863E0,-9.320043921E-1
7.252961045E0,-5.575276613E-1,-9.665806770E0,-8.985049129E-1
7.271769691E0,-5.192425251E-1,-9.689735413E0,-8.901300430E-1
7.290578337E0,-5.180460811E-1,-9.695717812E0,-8.506484628E-1
7.309386930E0,-4.666004181E-1,-9.637093544E0,-8.291130662E-1
7.328195576E0,-4.642075896E-1,-9.644271851E0,-7.740781307E-1
7.347004222E0,-4.689932466E-1,-9.671789169E0,-7.848458290E-1
7.365812816E0,-4.666004181E-1,-9.683753014E0,-8.063812256E-1
7.384621462E0,-4.749752879E-1,-9.669396400E0,-8.183453679E-1
7.403430107E0,-5.060819983E-1,-9.667003632E0,-8.482556343E-1
7.422238753E0,-5.407779217E-1,-9.670592308E0,-8.865407705E-1
7.441047347E0,-5.886343718E-1,-9.669396400E0,-8.865407705E-1
7.459855993E0,-6.771687865E-1,-9.686145782E0,-9.116654396E-1
7.478664639E0,-6.723831892E-1,-9.696913719E0,-9.822536707E-1
7.497473232E0,-6.089733839E-1,-9.683753014E0,-9.499505758E-1
7.516281878E0,-5.587241054E-1,-9.710074425E0,-8.961120844E-1
7.535090524E0,-5.204389095E-1,-9.702896118E0,-9.044869542E-1
7.553899118E0,-5.096712112E-1,-9.684949875E0,-8.614161611E-1
7.572707764E0,-5.383850932E-1,-9.688538551E0,-8.781659007E-1
7.591516410E0,-5.204389095E-1,-9.712467194E0,-9.978070259E-1
7.610325055E0,-4.989035130E-1,-9.671789169E0,-1.066002488E0
7.629133649E0,-5.264210105E-1,-9.682557106E0,-9.810572863E-1
7.647942295E0,-5.922235847E-1,-9.688538551E0,-8.949156404E-1
7.666750941E0,-6.376872063E-1,-9.694520950E0,-8.446664214E-1
7.685559535E0,-6.017948985E-1,-9.695717812E0,-8.650053740E-1
7.704368180E0,-5.575276613E-1,-9.705288887E0,-9.236295223E-1
7.723176826E0,-5.754738450E-1,-9.667003632E0,-1.009771109E0
7.741985420E0,-6.245267391E-1,-9.653842926E0,-9.367900491E-1
7.760794066E0,-5.958128572E-1,-9.690931320E0,-8.554341197E-1
7.779602712E0,-4.342973232E-1,-9.702896118E0,-8.781659007E-1
7.798411305E0,-4.115654826E-1,-9.688538551E0,-8.602197170E-1
7.817219951E0,-4.977070987E-1,-9.704092026E0,-8.721838593E-1
7.836028597E0,-6.592226624E-1,-9.704092026E0,-9.547362328E-1
7.854837191E0,-7.190431952E-1,-9.676574707E0,-9.930213690E-1
7.873645837E0,-6.209374666E-1,-9.644271851E0,-9.702895880E-1
7.892454482E0,-4.929214716E-1,-9.692128181E0,-9.451649189E-1
7.911263076E0,-4.151547253E-1,-9.720842361E0,-9.056833982E-1
7.930071722E0,-4.510470629E-1,-9.675378799E0,-7.764709592E-1
7.948880368E0,-5.982056856E-1,-9.688538551E0,-7.668996453E-1
7.967688962E0,-6.496513486E-1,-9.696913719E0,-8.997012973E-1
7.986497607E0,-6.149554253E-1,-9.678967476E0,-9.403793216E-1
8.005306253E0,-5.958128572E-1,-9.680164337E0,-8.554341197E-1
8.024114847E0,-6.281159520E-1,-9.692128181E0,-8.542376757E-1
8.042923493E0,-6.245267391E-1,-9.686145782E0,-9.020941257E-1
8.061732139E0,-5.539384484E-1,-9.706484795E0,-9.140582681E-1
8.080540732E0,-4.881358147E-1,-9.718449593E0,-9.140582681E-1
8.099349378E0,-5.347958803E-1,-9.720842361E0,-9.332008362E-1
8.118158024E0,-5.587241054E-1,-9.704092026E0,-9.104689956E-1
8.136966618E0,-5.192425251E-1,-9.720842361E0,-9.044869542E-1
8.155775264E0,-4.606183469E-1,-9.675378799E0,-9.212366939E-1
8.174583910E0,-4.689932466E-1,-9.623932838E0,-8.207381964E-1
8.193392503E0,-5.706881881E-1,-9.645467758E0,-7.118647099E-1
8.212201149E0,-6.999006271E-1,-9.688538551E0,-7.489534616E-1
8.231009743E0,-6.412764788E-1,-9.699306488E0,-8.913264275E-1
8.249818389E0,-5.623133183E-1,-9.680164337E0,-8.829515576E-1
8.268627035E0,-6.005984545E-1,-9.670592308E0,-7.872386575E-1
8.287435628E0,-6.305087805E-1,-9.667003632E0,-8.327022791E-1
8.306244274E0,-5.838487148E-1,-9.676574707E0,-9.415757060E-1
8.325052920E0,-5.012963414E-1,-9.696913719E0,-9.200403094E-1
8.343861514E0,-5.192425251E-1,-9.713663101E0,-8.410771489E-1
8.362670160E0,-5.599204898E-1,-9.681360245E0,-8.434699774E-1
8.381478805E0,-5.802595019E-1,-9.665806770E0,-9.200403094E-1
8.400287399E0,-6.221339107E-1,-9.651450157E0,-9.475577474E-1
8.419096045E0,-6.245267391E-1,-9.684949875E0,-8.709874153E-1
8.437904639E0,-5.312066078E-1,-9.688538551E0,-7.968099117E-1
8.456713285E0,-5.108676553E-1,-9.681360245E0,-8.434699774E-1
8.475521930E0,-5.060819983E-1,-9.701699257E0,-9.332008362E-1
8.494330524E0,-5.012963414E-1,-9.701699257E0,-9.044869542E-1
8.513139170E0,-5.312066078E-1,-9.682557106E0,-7.836494446E-1
8.531947764E0,-5.527420044E-1,-9.641879082E0,-7.573283911E-1
8.550756410E0,-5.563312769E-1,-9.616754532E0,-8.566305041E-1
8.569565055E0,-5.814558864E-1,-9.650253296E0,-8.925228715E-1
8.588373649E0,-6.340979934E-1,-9.661021233E0,-8.470591903E-1
8.607182295E0,-6.352944374E-1,-9.671789169E0,-8.434699774E-1
8.625990941E0,-5.611169338E-1,-9.664610863E0,-8.422735929E-1
8.644799535E0,-4.749752879E-1,-9.711270332E0,-8.315058947E-1
8.663608180E0,-4.606183469E-1,-9.808179855E0,-8.075776696E-1
8.682416774E0,-5.012963414E-1,-9.787840843E0,-8.147560954E-1
8.701225420E0,-6.077769399E-1,-9.725627899E0,-8.937192559E-1
8.720034014E0,-6.089733839E-1,-9.724431038E0,-9.284151793E-1
8.738842660E0,-6.903293133E-1,-9.722038269E0,-9.224331379E-1
8.757651305E0,-6.819544435E-1,-9.670592308E0,-8.099704385E-1
8.776459899E0,-5.312066078E-1,-9.592825890E0,-6.460621357E-1
8.795268545E0,-4.522434771E-1,-9.617950439E0,-7.130611539E-1
8.814077191E0,-2.955136001E-1,-9.694520950E0,-8.889335990E-1
8.832885785E0,-2.213360965E-1,-9.724431038E0,-9.583254457E-1
8.851694430E0,-2.667997181E-1,-9.728020668E0,-9.044869542E-1
8.870503024E0,-3.936193287E-1,-9.699306488E0,-8.506484628E-1
8.889311670E0,-5.407779217E-1,-9.687342644E0,-8.398807645E-1
8.908120264E0,-6.065805554E-1,-9.681360245E0,-8.315058947E-1
8.926928910E0,-6.089733839E-1,-9.688538551E0,-8.470591903E-1
8.945737555E0,-6.221339107E-1,-9.739984512E0,-9.343972206E-1
8.964546149E0,-6.113662124E-1,-9.760323524E0,-1.012163997E0
8.983354795E0,-6.221339107E-1,-9.736394882E0,-9.702895880E-1
9.002163389E0,-6.628118753E-1,-9.649057388E0,-8.697910309E-1
9.020972035E0,-6.687939167E-1,-9.602396965E0,-7.824530005E-1
9.039780680E0,-5.156532526E-1,-9.675378799E0,-8.350951076E-1
9.058589274E0,-4.079762697E-1,-9.690931320E0,-8.350951076E-1
9.077397920E0,-3.062812984E-1,-9.638289452E0,-8.279166222E-1
9.096206514E0,-2.979064286E-1,-9.639486313E0,-8.602197170E-1
9.115015160E0,-3.541377485E-1,-9.695717812E0,-8.865407705E-1
9.133823805E0,-4.247260094E-1,-9.745966911E0,-8.446664214E-1
9.152632399E0,-5.096712112E-1,-9.698110580E0,-7.692924738E-1
9.171441045E0,-5.838487148E-1,-9.662218094E0,-7.417750359E-1
9.190249639E0,-6.340979934E-1,-9.722038269E0,-7.405785918E-1
9.209058285E0,-7.094719410E-1,-9.772287369E0,-7.310073376E-1
9.227866878E0,-7.609176040E-1,-9.713663101E0,-6.711867452E-1
9.246675524E0,-7.740781307E-1,-9.682557106E0,-6.305087805E-1
9.265484170E0,-7.334001660E-1,-9.723235130E0,-7.214360237E-1
9.284292764E0,-6.352944374E-1,-9.696913719E0,-8.243274093E-1
9.303101410E0,-4.642075896E-1,-9.688538551E0,-7.728816867E-1
9.321910003E0,-4.331009090E-1,-9.688538551E0,-6.508477330E-1
9.340718649E0,-5.228317380E-1,-9.712467194E0,-6.831508875E-1
9.359527243E0,-5.575276613E-1,-9.686145782E0,-7.668996453E-1
9.378335889E0,-6.161518097E-1,-9.656235695E0,-8.410771489E-1
9.397144482E0,-6.532405615E-1,-9.661021233E0,-8.949156404E-1
9.415953128E0,-5.120640397E-1,-9.692128181E0,-8.662018180E-1
9.434761722E0,-3.840480447E-1,-9.707681656E0,-8.530412912E-1
9.453570368E0,-4.055834413E-1,-9.717252731E0,-8.650053740E-1
9.472379014E0,-3.326023519E-1,-9.716055870E0,-8.829515576E-1
9.491187607E0,-3.146561682E-1,-9.714859962E0,-8.877372146E-1
9.509996253E0,-3.756731451E-1,-9.732806206E0,-9.140582681E-1
9.528804847E0,-2.560320199E-1,-9.646664619E0,-9.882357717E-1
9.547613493E0,-8.494520187E-2,-9.722038269E0,-9.547362328E-1
9.566422087E0,-9.690931439E-2,-9.729216576E0,-8.721838593E-1
9.585230732E0,-1.818545163E-1,-9.701699257E0,-7.250252366E-1
9.604039326E0,-3.732803464E-1,-9.639486313E0,-7.130611539E-1
9.622847972E0,-4.773681164E-1,-9.629914284E0,-1.016949654E0
9.641656566E0,-4.510470629E-1,-9.640682220E0,-1.215553880E0
9.660465212E0,-3.445664644E-1,-9.661021233E0,-1.109073281E0
9.679273857E0,-2.189432681E-1,-9.707681656E0,-9.116654396E-1
9.698082451E0,-2.344966233E-1,-9.789037704E0,-8.195417523E-1
9.716891097E0,-3.840480447E-1,-9.749555588E0,-8.865407705E-1
9.735699691E0,-5.192425251E-1,-9.705288887E0,-9.834501147E-1
9.754508337E0,-6.580262184E-1,-9.609575272E0,-9.595218897E-1
9.773316930E0,-7.082754970E-1,-9.597611427E0,-9.176474810E-1
9.792125576E0,-6.125625968E-1,-9.649057388E0,-9.164510965E-1
9.810934170E0,-5.910272002E-1,-9.698110580E0,-8.937192559E-1
9.829742816E0,-5.455635786E-1,-9.720842361E0,-9.032905698E-1
9.848551410E0,-5.072783828E-1,-9.695717812E0,-8.638089895E-1
9.867360055E0,-5.503492355E-1,-9.670592308E0,-7.704889178E-1
9.886168649E0,-6.544370055E-1,-9.720842361E0,-7.489534616E-1
9.904977295E0,-7.896314859E-1,-9.671789169E0,-8.279166222E-1
9.923785889E0,-7.680960894E-1,-9.626325607E0,-8.829515576E-1
9.942594535E0,-7.238288522E-1,-9.676574707E0,-8.889335990E-1
9.961403180E0,-6.508477330E-1,-9.656235695E0,-8.482556343E-1
9.980211774E0,-5.862415433E-1,-9.683753014E0,-8.099704385E-1
9.999020420E0,-5.503492355E-1,-9.662218094E0,-7.788637877E-1
1.001782901E1,-5.395814776E-1,-9.719645500E0,-7.788637877E-1
1.003663766E1,-5.407779217E-1,-9.734002113E0,-7.848458290E-1
1.005544625E1,-5.635097623E-1,-9.664610863E0,-7.776673436E-1
1.007425490E1,-6.017948985E-1,-9.670592308E0,-8.051848412E-1
1.009306349E1,-6.735795736E-1,-9.726823807E0,-8.195417523E-1
1.011187214E1,-7.178468108E-1,-9.742377281E0,-7.896314859E-1
1.013068073E1,-7.465606928E-1,-9.748359680E0,-7.585247755E-1
1.014948938E1,-8.063812256E-1,-9.686145782E0,-7.357929349E-1
1.016829797E1,-8.039883971E-1,-9.652647018E0,-6.735795736E-1
1.018710662E1,-8.913264275E-1,-9.686145782E0,-6.233302951E-1
1.020591521E1,-1.008574724E0,-9.696913719E0,-5.886343718E-1
1.022472386E1,-9.690931439E-1,-9.687342644E0,-6.113662124E-1
1.024353245E1,-8.805587292E-1,-9.633503914E0,-6.448656917E-1
1.026234110E1,-7.776673436E-1,-9.580862045E0,-6.352944374E-1
1.028114969E1,-7.058826685E-1,-9.659825325E0,-6.388836503E-1
1.029995834E1,-7.202396393E-1,-9.659825325E0,-5.994020700E-1
1.031876693E1,-7.585247755E-1,-9.616754532E0,-6.364908218E-1
1.033757558E1,-7.357929349E-1,-9.670592308E0,-7.549355626E-1
1.035638417E1,-7.429714203E-1,-9.751948357E0,-8.925228715E-1
1.037519282E1,-7.274180651E-1,-9.690931320E0,-8.554341197E-1
1.039400141E1,-7.776673436E-1,-9.651450157E0,-7.477570772E-1
1.041281006E1,-9.260223508E-1,-9.638289452E0,-6.221339107E-1
1.043161865E1,-1.037288666E0,-9.667003632E0,-5.706881881E-1
1.045042730E1,-1.028913736E0,-9.667003632E0,-6.951149702E-1
1.046923589E1,-9.296116233E-1,-9.702896118E0,-8.578268886E-1
1.048804454E1,-8.805587292E-1,-9.765109062E0,-9.439685345E-1
1.050685313E1,-9.188438654E-1,-9.711270332E0,-8.386843204E-1
1.052566177E1,-9.152546525E-1,-9.695717812E0,-6.604190469E-1
1.054447037E1,-9.116654396E-1,-9.711270332E0,-5.479564071E-1
1.056327901E1,-8.937192559E-1,-9.704092026E0,-6.783652306E-1
1.058208761E1,-8.303094506E-1,-9.739984512E0,-8.841479421E-1
1.060089620E1,-8.195417523E-1,-9.659825325E0,-8.817551732E-1
1.061970485E1,-7.405785918E-1,-9.734002113E0,-7.094719410E-1
1.063851344E1,-6.376872063E-1,-9.757930756E0,-5.419743061E-1
1.065732209E1,-6.173482537E-1,-9.622735977E0,-5.659025311E-1
1.067613068E1,-5.575276613E-1,-9.665806770E0,-6.675975323E-1
1.069493933E1,-4.821537733E-1,-9.619147301E0,-6.424728632E-1
1.071374792E1,-4.749752879E-1,-9.579665184E0,-5.850451589E-1
1.073255657E1,-6.209374666E-1,-9.701699257E0,-6.879364848E-1
1.075136516E1,-6.568298340E-1,-9.754341125E0,-8.231309652E-1
1.077017380E1,-6.843472719E-1,-9.671789169E0,-8.051848412E-1
1.078898240E1,-7.657032609E-1,-9.589237213E0,-6.305087805E-1
1.080779104E1,-7.070791125E-1,-9.651450157E0,-4.917250574E-1
1.082659964E1,-5.850451589E-1,-9.729216576E0,-4.474578202E-1
1.084540829E1,-5.168496966E-1,-9.749555588E0,-5.838487148E-1
1.086421688E1,-4.307080805E-1,-9.766305923E0,-7.800601721E-1
1.088302547E1,-3.696911037E-1,-9.723235130E0,-9.140582681E-1
1.090183412E1,-4.043870270E-1,-9.667003632E0,-8.817551732E-1
1.092064271E1,-4.438686073E-1,-9.665806770E0,-6.532405615E-1
1.093945136E1,-5.682953596E-1,-9.729216576E0,-4.701896608E-1
1.095825995E1,-6.891329288E-1,-9.804591179E0,-4.534398913E-1
1.097706860E1,-7.573283911E-1,-9.771091461E0,-5.766702294E-1
1.099587719E1,-7.740781307E-1,-9.629914284E0,-6.388836503E-1
1.101468584E1,-6.568298340E-1,-9.638289452E0,-5.814558864E-1
1.103349443E1,-5.431707501E-1,-9.761520386E0,-4.510470629E-1
1.105230308E1,-3.744767308E-1,-9.786644936E0,-4.510470629E-1
1.107111167E1,-1.914258152E-1,-9.761520386E0,-4.438686073E-1
1.108992032E1,-3.026920557E-1,-9.686145782E0,-4.630111754E-1
1.110872891E1,-2.931207716E-1,-9.718449593E0,-5.335994363E-1
1.112753756E1,-3.541377485E-1,-9.809376717E0,-5.407779217E-1
1.114634615E1,-5.036891699E-1,-9.748359680E0,-5.264210105E-1
1.116515474E1,-5.659025311E-1,-9.736394882E0,-4.881358147E-1
1.118396339E1,-5.599204898E-1,-9.798608780E0,-4.247260094E-1
1.120277198E1,-5.359922647E-1,-9.793823242E0,-3.445664644E-1
1.122158063E1,-5.228317380E-1,-9.717252731E0,-3.194418252E-1
1.124038922E1,-6.735795736E-1,-9.598808289E0,-2.931207716E-1
1.125919787E1,-6.508477330E-1,-9.560523033E0,-2.739782035E-1
1.127800646E1,-4.354937077E-1,-9.712467194E0,-3.672982752E-1
1.129681506E1,-4.151547253E-1,-9.757930756E0,-4.546363056E-1
1.131562370E1,-3.744767308E-1,-9.793823242E0,-5.371887088E-1
1.133443230E1,-3.661018610E-1,-9.790233612E0,-5.790630579E-1
1.135324094E1,-5.515456200E-1,-9.710074425E0,-5.300102234E-1
1.137204954E1,-7.393822074E-1,-9.753145218E0,-4.953143001E-1
1.139085818E1,-7.944171429E-1,-9.766305923E0,-4.618147612E-1
1.140966677E1,-6.975077987E-1,-9.678967476E0,-4.534398913E-1
1.142847542E1,-4.809573591E-1,-9.790233612E0,-5.264210105E-1
1.144728401E1,-4.271188378E-1,-9.873982430E0,-6.029912829E-1
1.146609261E1,-6.544370055E-1,-9.797411919E0,-5.204389095E-1
1.148490125E1,-8.015955687E-1,-9.672985077E0,-3.038884699E-1
1.150370985E1,-8.482556343E-1,-9.567701340E0,-2.967100143E-1
1.152251849E1,-7.872386575E-1,-9.596415520E0,-4.546363056E-1
1.154132709E1,-5.347958803E-1,-9.722038269E0,-5.479564071E-1
1.156013573E1,-3.888336718E-1,-9.742377281E0,-5.347958803E-1
1.157894433E1,-3.421736360E-1,-9.663414001E0,-5.515456200E-1
1.159775292E1,-3.242274821E-1,-9.625128746E0,-5.431707501E-1
1.161656157E1,-2.560320199E-1,-9.670592308E0,-5.467599630E-1
1.163537016E1,-2.021935135E-1,-9.713663101E0,-6.053841114E-1
1.165417880E1,-1.770688742E-1,-9.724431038E0,-7.944171429E-1
1.167298740E1,-1.148554832E-1,-9.735198975E0,-9.403793216E-1
1.169179604E1,2.392822644E-3,-9.763913155E0,-8.973084688E-1
1.171060464E1,-1.447657645E-1,-9.744770050E0,-6.963114142E-1
1.172941323E1,-1.734796464E-1,-9.711270332E0,-5.120640397E-1
1.174822188E1,-7.298108935E-2,-9.676574707E0,-5.419743061E-1
1.176703047E1,-1.914258115E-2,-9.687342644E0,-6.077769399E-1
1.178583912E1,-1.184447184E-1,-9.687342644E0,-5.742774606E-1
1.180464771E1,-3.062812984E-1,-9.671789169E0,-3.924229145E-1
1.182345630E1,-4.821537733E-1,-9.578469276E0,-3.696911037E-1
1.184226495E1,-5.204389095E-1,-9.619147301E0,-4.773681164E-1
1.186107354E1,-4.809573591E-1,-9.719645500E0,-4.558327198E-1
1.187988219E1,-4.797609448E-1,-9.728020668E0,-3.553341627E-1
1.189869079E1,-5.766702294E-1,-9.712467194E0,-3.696911037E-1
1.191749943E1,-7.345965505E-1,-9.700503349E0,-4.426721931E-1
1.193630802E1,-8.757730722E-1,-9.699306488E0,-4.666004181E-1
1.195511662E1,-9.559326172E-1,-9.774680138E0,-4.450650215E-1
1.197392526E1,-8.925228715E-1,-9.824930191E0,-4.331009090E-1
1.199273386E1,-7.836494446E-1,-9.781859398E0,-4.462614357E-1
1.201154245E1,-7.537391186E-1,-9.729216576E0,-3.732803464E-1
1.203035110E1,-7.405785918E-1,-9.700503349E0,-2.763710022E-1
1.204915969E1,-7.178468108E-1,-9.724431038E0,-2.285145670E-1
1.206796834E1,-6.963114142E-1,-9.745966911E0,-3.050848842E-1
1.208677693E1,-5.659025311E-1,-9.683753014E0,-4.881358147E-1
1.210558552E1,-4.498506486E-1,-9.653842926E0,-5.838487148E-1
1.212439417E1,-4.223332107E-1,-9.686145782E0,-5.000999570E-1
1.214320276E1,-4.941178858E-1,-9.707681656E0,-4.402793646E-1
1.216201141E1,-5.910272002E-1,-9.711270332E0,-4.342973232E-1
1.218082000E1,-5.599204898E-1,-9.724431038E0,-5.156532526E-1
1.219962865E1,-5.096712112E-1,-9.742377281E0,-5.706881881E-1
1.221843724E1,-4.390829504E-1,-9.784252167E0,-5.347958803E-1
1.223724584E1,-4.438686073E-1,-9.790233612E0,-5.144568682E-1
1.225605448E1,-5.264210105E-1,-9.744770050E0,-4.797609448E-1
1.227486308E1,-6.293123364E-1,-9.714859962E0,-4.271188378E-1
1.229367172E1,-6.915257573E-1,-9.687342644E0,-3.672982752E-1
1.231248032E1,-6.711867452E-1,-9.676574707E0,-3.900300860E-1
1.233128891E1,-5.431707501E-1,-9.731609344E0,-4.642075896E-1
1.235009756E1,-5.108676553E-1,-9.750752449E0,-4.929214716E-1
1.236890615E1,-5.288137794E-1,-9.708877563E0,-5.036891699E-1
1.238771474E1,-4.809573591E-1,-9.672985077E0,-4.689932466E-1
1.240652339E1,-4.295116663E-1,-9.677771568E0,-4.295116663E-1
1.242533198E1,-4.019941986E-1,-9.698110580E0,-4.091726840E-1
1.244414063E1,-3.326023519E-1,-9.736394882E0,-4.570291340E-1
1.246294922E1,-3.481557071E-1,-9.739984512E0,-5.312066078E-1
1.248175782E1,-4.522434771E-1,-9.743574142E0,-5.479564071E-1
1.250056646E1,-5.491527915E-1,-9.731609344E0,-5.024927258E-1
1.251937506E1,-6.412764788E-1,-9.723235130E0,-3.876372576E-1
1.253818365E1,-5.886343718E-1,-9.742377281E0,-3.948157430E-1
1.255699230E1,-4.366901219E-1,-9.734002113E0,-4.654040039E-1
1.257580089E1,-3.637090325E-1,-9.736394882E0,-4.594219327E-1
1.259460954E1,-3.780659735E-1,-9.712467194E0,-3.972085714E-1
1.261341813E1,-4.498506486E-1,-9.680164337E0,-3.613162339E-1
1.263222672E1,-4.785645306E-1,-9.688538551E0,-3.876372576E-1
1.265103537E1,-5.000999570E-1,-9.722038269E0,-4.438686073E-1
1.266984396E1,-4.725824594E-1,-9.707681656E0,-4.929214716E-1
1.268865256E1,-3.960121572E-1,-9.723235130E0,-5.048855543E-1
1.270746120E1,-5.012963414E-1,-9.704092026E0,-4.223332107E-1
1.272626980E1,-5.228317380E-1,-9.710074425E0,-3.589234054E-1
1.274507839E1,-5.300102234E-1,-9.705288887E0,-3.553341627E-1
1.276388704E1,-5.814558864E-1,-9.694520950E0,-3.792623878E-1
1.278269563E1,-5.730810165E-1,-9.684949875E0,-3.649054468E-1
1.280150427E1,-5.934200287E-1,-9.692128181E0,-3.960121572E-1
1.282031287E1,-5.718846321E-1,-9.726823807E0,-4.199403822E-1
1.283912146E1,-5.084748268E-1,-9.694520950E0,-4.474578202E-1
1.285793011E1,-4.342973232E-1,-9.722038269E0,-4.749752879E-1
1.287673870E1,-4.199403822E-1,-9.737591743E0,-4.953143001E-1
1.289554730E1,-4.486542344E-1,-9.743574142E0,-5.228317380E-1
1.291435594E1,-5.228317380E-1,-9.738788605E0,-5.276173949E-1
1.293316454E1,-5.898307562E-1,-9.750752449E0,-5.180460811E-1
1.295197313E1,-6.125625968E-1,-9.735198975E0,-4.989035130E-1
1.297078177E1,-5.706881881E-1,-9.724431038E0,-4.785645306E-1
1.298959037E1,-5.407779217E-1,-9.700503349E0,-4.510470629E-1
1.300839896E1,-5.240281820E-1,-9.735198975E0,-3.828516304E-1
1.302720761E1,-5.515456200E-1,-9.714859962E0,-3.433700502E-1
1.304601620E1,-6.113662124E-1,-9.700503349E0,-2.919243574E-1
1.306482485E1,-6.747759581E-1,-9.708877563E0,-2.907279432E-1
1.308363344E1,-7.345965505E-1,-9.687342644E0,-3.696911037E-1
1.310244204E1,-6.711867452E-1,-9.674181938E0,-4.426721931E-1
1.312125068E1,-5.563312769E-1,-9.676574707E0,-4.534398913E-1
1.314005927E1,-4.271188378E-1,-9.720842361E0,-4.654040039E-1
1.315886787E1,-3.337987661E-1,-9.738788605E0,-4.785645306E-1
1.317767651E1,-3.469592929E-1,-9.731609344E0,-3.936193287E-1
1.319648511E1,-3.481557071E-1,-9.705288887E0,-3.529413342E-1
1.321529370E1,-3.589234054E-1,-9.690931320E0,-4.163511395E-1
1.323410235E1,-3.804588020E-1,-9.708877563E0,-5.000999570E-1
1.325291094E1,-3.373879790E-1,-9.687342644E0,-5.491527915E-1
1.327171954E1,-3.074777126E-1,-9.702896118E0,-5.288137794E-1
1.329052818E1,-2.919243574E-1,-9.750752449E0,-5.264210105E-1
1.330933677E1,-3.002992272E-1,-9.626325607E0,-4.295116663E-1
1.332814537E1,-3.816552162E-1,-9.549755096E0,-3.230310678E-1
1.334695401E1,-4.606183469E-1,-9.649057388E0,-2.835494876E-1
1.336576261E1,-5.958128572E-1,-9.750752449E0,-3.158525825E-1
1.338457120E1,-6.640082598E-1,-9.750752449E0,-3.433700502E-1
1.340337985E1,-6.711867452E-1,-9.725627899E0,-3.421736360E-1
1.342218844E1,-7.226324677E-1,-9.705288887E0,-3.158525825E-1
1.344099704E1,-6.987041831E-1,-9.723235130E0,-3.086741269E-1
1.345980568E1,-6.053841114E-1,-9.723235130E0,-3.505485058E-1
1.347861427E1,-3.397808075E-1,-9.766305923E0,-4.043870270E-1
1.349742287E1,-1.519442350E-1,-9.780662537E0,-4.139583111E-1
1.351623151E1,-5.862415582E-2,-9.744770050E0,-4.833501875E-1
1.353504011E1,6.221338734E-2,-9.714859962E0,-6.400800347E-1
1.355384870E1,1.639083475E-1,-9.714859962E0,-7.190431952E-1
1.357265735E1,2.356930375E-1,-9.736394882E0,-6.795616150E-1
1.359146594E1,2.153540403E-1,-9.707681656E0,-5.515456200E-1
1.361027454E1,9.332008660E-2,-9.754341125E0,-3.912265003E-1
1.362908318E1,-1.016949639E-1,-9.789037704E0,-3.361915946E-1
1.364789177E1,-3.361915946E-1,-9.755537987E0,-3.230310678E-1
1.366670037E1,-5.359922647E-1,-9.731609344E0,-4.055834413E-1
1.368550901E1,-6.604190469E-1,-9.761520386E0,-4.689932466E-1
1.370431761E1,-5.910272002E-1,-9.704092026E0,-5.647061467E-1
1.372312620E1,-4.247260094E-1,-9.716055870E0,-5.623133183E-1
1.374193480E1,-5.036891699E-1,-9.722038269E0,-4.115654826E-1
1.376074344E1,-5.108676553E-1,-9.753145218E0,-3.326023519E-1
1.377955204E1,-3.553341627E-1,-9.749555588E0,-3.481557071E-1
1.379836063E1,-2.727817893E-1,-9.681360245E0,-4.342973232E-1
1.381716927E1,-1.651047617E-1,-9.617950439E0,-4.833501875E-1
1.383597787E1,-7.298108935E-2,-9.650253296E0,-4.378865361E-1
1.385478646E1,1.914258115E-2,-9.859625816E0,-4.366901219E-1
1.387359511E1,3.948157281E-2,-1.002233791E1,-5.180460811E-1
1.389240370E1,-4.785645381E-2,-9.730413437E0,-4.749752879E-1
1.391121230E1,-7.058826834E-2,-9.498309135E0,-5.276173949E-1
1.393002094E1,-7.896314561E-2,-1.015753174E1,-7.645068169E-1
1.394882954E1,-3.912265003E-1,-1.004506969E1,-5.670989752E-1
1.396763813E1,-3.720839322E-1,-9.736394882E0,-1.878365725E-1
1.398644672E1,-4.163511395E-1,-9.445667267E0,-2.153540403E-2
1.400525537E1,-7.010970116E-1,-9.632308006E0,6.221338734E-2
1.402406396E1,-6.951149702E-1,-9.808179855E0,-4.067798331E-2
1.404287256E1,-7.357929349E-1,-9.827322960E0,-2.177468538E-1
1.406168120E1,-8.111668825E-1,-9.621540070E0,-2.763710022E-1
1.408048980E1,-6.293123364E-1,-9.635896683E0,-3.242274821E-1
1.409929839E1,-5.623133183E-1,-9.725627899E0,-3.984049559E-1
1.411810704E1,-4.689932466E-1,-9.603593826E0,-3.230310678E-1
1.413691563E1,-4.402793646E-1,-9.738788605E0,-2.799602449E-1
1.415572422E1,-4.654040039E-1,-9.877572060E0,-2.476571500E-1
1.417453282E1,-5.670989752E-1,-9.806983948E0,-2.799602449E-1
1.419334146E1,-7.286145091E-1,-9.765109062E0,-4.055834413E-1
1.421215006E1,-7.585247755E-1,-9.471988678E0,-5.324030519E-1
1.423095865E1,-8.015955687E-1,-9.464810371E0,-6.652047038E-1
1.424976730E1,-6.400800347E-1,-9.668199539E0,-7.561319470E-1
1.426857589E1,-3.421736360E-1,-9.737591743E0,-6.735795736E-1
1.428738448E1,-1.495514214E-1,-9.659825325E0,-5.252245665E-1
1.430619313E1,-8.374879509E-2,-9.767501831E0,-5.252245665E-1
1.432500172E1,-1.471585929E-1,-9.952945709E0,-5.611169338E-1
1.434381032E1,-2.715853751E-1,-9.790233612E0,-5.036891699E-1
1.436261891E1,-3.984049559E-1,-9.631111145E0,-4.869394004E-1
1.438142756E1,-4.725824594E-1,-9.637093544E0,-4.582255483E-1
1.440023615E1,-5.826523304E-1,-9.718449593E0,-4.761717021E-1
1.441904474E1,-6.209374666E-1,-9.784252167E0,-4.881358147E-1
1.443785334E1,-6.508477330E-1,-9.779465675E0,-4.522434771E-1
1.445666198E1,-7.645068169E-1,-9.644271851E0,-4.271188378E-1
1.447547058E1,-7.525427341E-1,-9.547362328E0,-4.331009090E-1
1.449427917E1,-7.357929349E-1,-9.725627899E0,-4.618147612E-1
1.451308782E1,-8.554341197E-1,-1.001515961E1,-4.749752879E-1
1.453189641E1,-9.511470199E-1,-9.864411354E0,-4.486542344E-1
1.455070500E1,-9.667003751E-1,-9.600004196E0,-4.773681164E-1
1.456951360E1,-9.212366939E-1,-9.499505997E0,-5.910272002E-1
1.458832224E1,-7.417750359E-1,-9.549755096E0,-6.508477330E-1
1.460713084E1,-5.862415433E-1,-9.682557106E0,-6.329016089E-1
1.462593943E1,-5.383850932E-1,-9.731609344E0,-5.491527915E-1
1.464474808E1,-6.221339107E-1,-9.702896118E0,-5.156532526E-1
1.466355667E1,-7.824530005E-1,-9.645467758E0,-5.072783828E-1
1.468236526E1,-7.932206988E-1,-9.619147301E0,-5.575276613E-1
1.470117386E1,-7.657032609E-1,-9.623932838E0,-5.599204898E-1
1.471998250E1,-7.501499057E-1,-9.687342644E0,-5.228317380E-1
1.473879110E1,-7.142575383E-1,-9.742377281E0,-5.288137794E-1
1.475759969E1,-5.587241054E-1,-9.738788605E0,-5.527420044E-1
1.477640828E1,-4.821537733E-1,-9.767501831E0,-5.850451589E-1
1.479521693E1,-4.785645306E-1,-9.761520386E0,-6.604190469E-1
1.481402552E1,-4.558327198E-1,-9.664610863E0,-8.027920127E-1
1.483283412E1,-5.515456200E-1,-9.668199539E0,-9.128618240E-1
1.485164276E1,-8.111668825E-1,-9.710074425E0,-9.619147182E-1
1.487045136E1,-8.602197170E-1,-9.699306488E0,-9.535398483E-1
1.488925995E1,-7.920243144E-1,-9.693324089E0,-8.566305041E-1
1.490806854E1,-7.585247755E-1,-9.702896118E0,-6.281159520E-1
1.492687719E1,-7.657032609E-1,-9.784252167E0,-4.642075896E-1
1.494568578E1,-7.202396393E-1,-9.696913719E0,-4.103690982E-1
1.496449438E1,-6.628118753E-1,-9.590433121E0,-5.084748268E-1
1.498330297E1,-6.568298340E-1,-9.543772697E0,-6.149554253E-1
1.500211162E1,-6.137589812E-1,-9.595218658E0,-6.532405615E-1
1.502092021E1,-6.245267391E-1,-9.724431038E0,-6.005984545E-1
1.503972881E1,-6.711867452E-1,-9.773484230E0,-5.910272002E-1
1.505853740E1,-7.393822074E-1,-9.707681656E0,-6.843472719E-1
1.507734604E1,-7.908278704E-1,-9.669396400E0,-7.166503668E-1
1.509615464E1,-8.362914920E-1,-9.653842926E0,-6.807580590E-1
1.511496323E1,-8.494520187E-1,-9.701699257E0,-6.903293133E-1
1.513377183E1,-7.417750359E-1,-9.680164337E0,-6.771687865E-1
1.515258047E1,-7.405785918E-1,-9.695717812E0,-5.958128572E-1
1.517138907E1,-8.015955687E-1,-9.714859962E0,-5.623133183E-1
1.519019766E1,-8.949156404E-1,-9.614361763E0,-6.628118753E-1
1.520900630E1,-9.152546525E-1,-9.560523033E0,-7.453642488E-1
1.522781490E1,-9.188438654E-1,-9.548559189E0,-7.441678643E-1
1.524662349E1,-8.925228715E-1,-9.594022751E0,-6.855437160E-1
1.526543209E1,-8.590233326E-1,-9.635896683E0,-7.058826685E-1
1.528424073E1,-7.405785918E-1,-9.667003632E0,-7.824530005E-1
1.530304933E1,-6.891329288E-1,-9.676574707E0,-7.645068169E-1
1.532185792E1,-7.178468108E-1,-9.701699257E0,-7.525427341E-1
1.534066651E1,-7.609176040E-1,-9.714859962E0,-7.477570772E-1
1.535947516E1,-7.405785918E-1,-9.767501831E0,-7.046862841E-1
1.537828375E1,-7.680960894E-1,-9.799804688E0,-7.010970116E-1
1.539709235E1,-8.566305041E-1,-9.777072906E0,-7.645068169E-1
1.541590094E1,-8.805587292E-1,-9.706484795E0,-8.231309652E-1
1.543470959E1,-8.961120844E-1,-9.635896683E0,-8.470591903E-1
1.545351818E1,-8.338986635E-1,-9.580862045E0,-7.860422134E-1
1.547232677E1,-7.692924738E-1,-9.613164902E0,-7.238288522E-1
1.549113537E1,-7.824530005E-1,-9.690931320E0,-6.556333899E-1
1.550994401E1,-8.638089895E-1,-9.789037704E0,-6.089733839E-1
1.552875261E1,-9.188438654E-1,-9.762716293E0,-6.352944374E-1
1.554756120E1,-8.733802438E-1,-9.655039787E0,-7.657032609E-1
1.556636985E1,-7.896314859E-1,-9.578469276E0,-8.614161611E-1
1.558517844E1,-7.944171429E-1,-9.609575272E0,-8.243274093E-1
1.560398704E1,-8.171489239E-1,-9.609575272E0,-7.010970116E-1
1.562279563E1,-8.195417523E-1,-9.605986595E0,-6.843472719E-1
1.564160422E1,-8.458628058E-1,-9.711270332E0,-7.034898400E-1
1.566041287E1,-8.626125455E-1,-9.812965393E0,-7.441678643E-1
1.567922146E1,-8.338986635E-1,-9.790233612E0,-7.848458290E-1
1.569803006E1,-7.728816867E-1,-9.725627899E0,-8.566305041E-1
1.571683870E1,-7.597211599E-1,-9.671789169E0,-9.212366939E-1
1.573564730E1,-8.494520187E-1,-9.647860527E0,-8.829515576E-1
1.575445589E1,-9.332008362E-1,-9.668199539E0,-7.992027402E-1
1.577326448E1,-1.014556766E0,-9.692128181E0,-7.118647099E-1
1.579207313E1,-1.025324464E0,-9.704092026E0,-7.094719410E-1
1.581088172E1,-9.870393276E-1,-9.696913719E0,-7.286145091E-1
1.582969032E1,-9.308080077E-1,-9.695717812E0,-7.262216806E-1
1.584849891E1,-8.291130662E-1,-9.678967476E0,-7.429714203E-1
1.586730756E1,-7.322037220E-1,-9.702896118E0,-7.896314859E-1
1.588611615E1,-7.692924738E-1,-9.719645500E0,-8.063812256E-1
1.590492474E1,-8.195417523E-1,-9.667003632E0,-7.357929349E-1
1.592373334E1,-8.279166222E-1,-9.686145782E0,-6.795616150E-1
1.594254198E1,-8.171489239E-1,-9.701699257E0,-7.166503668E-1
1.596135058E1,-8.075776696E-1,-9.678967476E0,-7.980063558E-1
1.598015917E1,-8.745766878E-1,-9.693324089E0,-8.135597110E-1
1.599896776E1,-8.961120844E-1,-9.676574707E0,-7.812566161E-1
1.601777641E1,-8.937192559E-1,-9.700503349E0,-7.657032609E-1
1.603658500E1,-8.685946465E-1,-9.696913719E0,-7.968099117E-1
1.605539360E1,-8.171489239E-1,-9.707681656E0,-7.980063558E-1
1.607420219E1,-8.195417523E-1,-9.706484795E0,-7.956135273E-1
1.609301084E1,-8.398807645E-1,-9.678967476E0,-8.075776696E-1
1.611181943E1,-8.075776696E-1,-9.651450157E0,-8.195417523E-1
1.613062802E1,-8.039883971E-1,-9.659825325E0,-7.573283911E-1
1.614943662E1,-7.956135273E-1,-9.671789169E0,-6.699903607E-1
1.616824526E1,-7.980063558E-1,-9.645467758E0,-5.994020700E-1
1.618705386E1,-8.303094506E-1,-9.680164337E0,-6.017948985E-1
1.620586245E1,-8.602197170E-1,-9.667003632E0,-6.723831892E-1
1.622467104E1,-9.284151793E-1,-9.625128746E0,-7.334001660E-1
1.624347969E1,-1.014556766E0,-9.637093544E0,-7.944171429E-1
1.626228828E1,-1.010967612E0,-9.671789169E0,-8.039883971E-1
1.628109688E1,-9.595218897E-1,-9.710074425E0,-8.171489239E-1
1.629990552E1,-9.248259664E-1,-9.677771568E0,-7.405785918E-1
1.631871412E1,-9.643075466E-1,-9.661021233E0,-6.592226624E-1
1.633752271E1,-9.427721500E-1,-9.695717812E0,-6.891329288E-1
1.635633130E1,-8.590233326E-1,-9.701699257E0,-7.501499057E-1
1.637513990E1,-8.518448472E-1,-9.694520950E0,-8.003991842E-1
1.639394854E1,-8.973084688E-1,-9.704092026E0,-7.429714203E-1
1.641275714E1,-9.678967595E-1,-9.650253296E0,-6.233302951E-1
1.643156573E1,-9.966106415E-1,-9.614361763E0,-5.790630579E-1
1.645037433E1,-9.726824164E-1,-9.659825325E0,-6.424728632E-1
1.646918297E1,-9.583254457E-1,-9.690931320E0,-7.250252366E-1
1.648799157E1,-9.858429432E-1,-9.651450157E0,-7.812566161E-1
1.650680016E1,-9.391828775E-1,-9.649057388E0,-7.692924738E-1
1.652560875E1,-9.355936646E-1,-9.670592308E0,-7.142575383E-1
1.654441740E1,-9.726824164E-1,-9.681360245E0,-6.352944374E-1
1.656322599E1,-9.882357717E-1,-9.652647018E0,-6.161518097E-1
1.658203459E1,-9.236295223E-1,-9.657432556E0,-6.604190469E-1
1.660084318E1,-8.997012973E-1,-9.674181938E0,-6.879364848E-1
1.661965183E1,-9.559326172E-1,-9.686145782E0,-6.807580590E-1
1.663846042E1,-1.037288666E0,-9.664610863E0,-6.364908218E-1
1.665726901E1,-1.045663476E0,-9.644271851E0,-6.185446382E-1
1.667607761E1,-1.021735311E0,-9.651450157E0,-6.388836503E-1
1.669488625E1,-9.523434043E-1,-9.694520950E0,-6.987041831E-1
1.671369485E1,-8.841479421E-1,-9.726823807E0,-7.884350419E-1
1.673250344E1,-9.224331379E-1,-9.765109062E0,-8.255237937E-1
1.675131204E1,-9.954141974E-1,-9.716055870E0,-8.027920127E-1
1.677012068E1,-1.016949654E0,-9.658628464E0,-7.286145091E-1
1.678892927E1,-9.643075466E-1,-9.663414001E0,-7.764709592E-1
1.680773787E1,-9.750752449E-1,-9.644271851E0,-7.417750359E-1
1.682654646E1,-1.008574724E0,-9.634700775E0,-6.352944374E-1
1.684535511E1,-1.033699393E0,-9.657432556E0,-5.778666735E-1
1.686416370E1,-9.583254457E-1,-9.656235695E0,-5.982056856E-1
1.688297230E1,-8.889335990E-1,-9.701699257E0,-6.520441771E-1
1.690178089E1,-8.626125455E-1,-9.662218094E0,-6.795616150E-1
1.692058954E1,-9.272187948E-1,-9.641879082E0,-6.221339107E-1
1.693939813E1,-1.027717352E0,-9.659825325E0,-5.539384484E-1
1.695820672E1,-1.112662554E0,-9.637093544E0,-4.689932466E-1
1.697701532E1,-1.133001566E0,-9.706484795E0,-5.024927258E-1
1.699582396E1,-1.064806104E0,-9.663414001E0,-5.790630579E-1
1.701463256E1,-9.954141974E-1,-9.676574707E0,-6.472585201E-1
1.703344115E1,-1.001396298E0,-9.731609344E0,-6.508477330E-1
1.705224974E1,-1.006181955E0,-9.724431038E0,-6.520441771E-1
1.707105834E1,-1.014556766E0,-9.698110580E0,-6.221339107E-1
1.708986698E1,-9.678967595E-1,-9.683753014E0,-5.958128572E-1
1.710867558E1,-9.296116233E-1,-9.669396400E0,-6.352944374E-1
1.712748417E1,-9.188438654E-1,-9.690931320E0,-7.250252366E-1
1.714629276E1,-8.973084688E-1,-9.712467194E0,-7.154539824E-1
1.716510141E1,-9.032905698E-1,-9.672985077E0,-6.364908218E-1
1.718391000E1,-8.925228715E-1,-9.638289452E0,-6.209374666E-1
1.720271860E1,-8.865407705E-1,-9.662218094E0,-6.125625968E-1
1.722152719E1,-8.279166222E-1,-9.658628464E0,-6.568298340E-1
1.724033584E1,-7.872386575E-1,-9.695717812E0,-6.735795736E-1
1.725914443E1,-7.872386575E-1,-9.686145782E0,-6.412764788E-1
1.727795302E1,-8.183453679E-1,-9.682557106E0,-6.101697683E-1
1.729676162E1,-8.973084688E-1,-9.683753014E0,-5.958128572E-1
1.731557026E1,-9.595218897E-1,-9.674181938E0,-6.329016089E-1
1.733437886E1,-9.152546525E-1,-9.662218094E0,-7.106683254E-1
1.735318745E1,-8.626125455E-1,-9.687342644E0,-7.334001660E-1
1.737199604E1,-8.362914920E-1,-9.701699257E0,-7.010970116E-1
1.739080469E1,-7.992027402E-1,-9.690931320E0,-6.496513486E-1
1.740961329E1,-7.704889178E-1,-9.680164337E0,-5.635097623E-1
1.742842188E1,-7.932206988E-1,-9.706484795E0,-5.144568682E-1
1.744723047E1,-8.291130662E-1,-9.702896118E0,-5.934200287E-1
1.746603912E1,-8.099704385E-1,-9.659825325E0,-7.310073376E-1
1.748484771E1,-7.657032609E-1,-9.680164337E0,-7.334001660E-1
1.750365630E1,-7.956135273E-1,-9.692128181E0,-6.496513486E-1
1.752246490E1,-8.099704385E-1,-9.708877563E0,-6.137589812E-1
1.754127349E1,-7.932206988E-1,-9.688538551E0,-6.508477330E-1
1.756008214E1,-8.111668825E-1,-9.684949875E0,-5.994020700E-1
1.757889073E1,-8.494520187E-1,-9.690931320E0,-5.623133183E-1
1.759769933E1,-8.267202377E-1,-9.667003632E0,-5.515456200E-1
1.761650792E1,-8.303094506E-1,-9.682557106E0,-5.635097623E-1
1.763531657E1,-8.482556343E-1,-9.688538551E0,-5.694918036E-1
1.765412516E1,-8.506484628E-1,-9.681360245E0,-6.305087805E-1
1.767293375E1,-7.920243144E-1,-9.700503349E0,-6.532405615E-1
1.769174235E1,-7.058826685E-1,-9.699306488E0,-6.173482537E-1
1.771055099E1,-7.226324677E-1,-9.702896118E0,-5.108676553E-1
1.772935959E1,-7.752745152E-1,-9.726823807E0,-5.395814776E-1
1.774816818E1,-7.812566161E-1,-9.684949875E0,-6.065805554E-1
1.776697677E1,-7.932206988E-1,-9.682557106E0,-6.041877270E-1
1.778578537E1,-8.039883971E-1,-9.708877563E0,-5.934200287E-1
1.780459401E1,-7.884350419E-1,-9.689735413E0,-6.340979934E-1
1.782340261E1,-8.123632669E-1,-9.702896118E0,-6.281159520E-1
1.784221120E1,-8.901300430E-1,-9.716055870E0,-5.682953596E-1
1.786101985E1,-8.733802438E-1,-9.710074425E0,-6.364908218E-1
1.787982844E1,-8.219345808E-1,-9.684949875E0,-7.238288522E-1
1.789863704E1,-7.537391186E-1,-9.698110580E0,-6.436693072E-1
1.791744563E1,-7.334001660E-1,-9.694520950E0,-5.132604837E-1
1.793625422E1,-7.274180651E-1,-9.657432556E0,-5.156532526E-1
1.795506287E1,-7.046862841E-1,-9.681360245E0,-5.970092416E-1
1.797387146E1,-6.915257573E-1,-9.711270332E0,-6.592226624E-1
1.799268006E1,-6.843472719E-1,-9.688538551E0,-6.879364848E-1
1.801148865E1,-7.286145091E-1,-9.719645500E0,-6.496513486E-1
1.803029730E1,-8.027920127E-1,-9.730413437E0,-5.874379873E-1
1.804910589E1,-8.721838593E-1,-9.681360245E0,-5.503492355E-1
1.806791448E1,-8.231309652E-1,-9.663414001E0,-6.065805554E-1
1.808672308E1,-7.441678643E-1,-9.656235695E0,-6.472585201E-1
1.810553172E1,-6.927221417E-1,-9.672985077E0,-6.687939167E-1
1.812434032E1,-6.999006271E-1,-9.702896118E0,-7.010970116E-1
1.814314891E1,-6.951149702E-1,-9.725627899E0,-6.867401004E-1
1.816195750E1,-7.118647099E-1,-9.724431038E0,-5.946164131E-1
1.818076615E1,-7.477570772E-1,-9.689735413E0,-5.383850932E-1
1.819957474E1,-7.812566161E-1,-9.649057388E0,-5.347958803E-1
1.821838334E1,-7.226324677E-1,-9.668199539E0,-6.269195080E-1
1.823719193E1,-7.441678643E-1,-9.701699257E0,-6.664010882E-1
1.825600052E1,-7.609176040E-1,-9.706484795E0,-6.843472719E-1
1.827480917E1,-7.704889178E-1,-9.680164337E0,-6.987041831E-1
1.829361776E1,-7.250252366E-1,-9.680164337E0,-6.807580590E-1
1.831242636E1,-6.867401004E-1,-9.696913719E0,-6.149554253E-1
1.833123495E1,-7.262216806E-1,-9.731609344E0,-6.005984545E-1
1.835004360E1,-6.891329288E-1,-9.689735413E0,-6.675975323E-1
1.836885219E1,-6.903293133E-1,-9.680164337E0,-6.963114142E-1
1.838766078E1,-7.477570772E-1,-9.702896118E0,-6.687939167E-1
1.840646938E1,-7.704889178E-1,-9.699306488E0,-6.257231236E-1
1.842527802E1,-8.470591903E-1,-9.682557106E0,-6.017948985E-1
1.844408662E1,-8.626125455E-1,-9.681360245E0,-6.053841114E-1
1.846289521E1,-8.051848412E-1,-9.676574707E0,-6.532405615E-1
1.848170381E1,-7.274180651E-1,-9.681360245E0,-6.580262184E-1
1.850051240E1,-6.915257573E-1,-9.670592308E0,-6.556333899E-1
1.851932104E1,-7.429714203E-1,-9.708877563E0,-5.814558864E-1
1.853812964E1,-8.303094506E-1,-9.698110580E0,-5.168496966E-1
1.855693823E1,-8.566305041E-1,-9.651450157E0,-5.347958803E-1
1.857574683E1,-8.458628058E-1,-9.687342644E0,-5.563312769E-1
1.859455542E1,-8.111668825E-1,-9.737591743E0,-6.089733839E-1
1.861336407E1,-7.166503668E-1,-9.682557106E0,-6.747759581E-1
1.863217266E1,-7.070791125E-1,-9.665806770E0,-6.340979934E-1
1.865098125E1,-7.585247755E-1,-9.722038269E0,-5.359922647E-1
1.866978985E1,-8.135597110E-1,-9.669396400E0,-4.905286431E-1
1.868859849E1,-8.506484628E-1,-9.639486313E0,-5.718846321E-1
1.870740709E1,-7.812566161E-1,-9.663414001E0,-6.041877270E-1
1.872621568E1,-7.226324677E-1,-9.681360245E0,-6.089733839E-1
1.874502427E1,-6.951149702E-1,-9.711270332E0,-6.281159520E-1
1.876383292E1,-7.561319470E-1,-9.736394882E0,-6.257231236E-1
1.878264151E1,-8.183453679E-1,-9.726823807E0,-6.233302951E-1
1.880145011E1,-8.267202377E-1,-9.662218094E0,-5.898307562E-1
1.882025870E1,-7.740781307E-1,-9.681360245E0,-5.096712112E-1
1.883906730E1,-8.063812256E-1,-9.683753014E0,-4.654040039E-1
1.885787594E1,-7.944171429E-1,-9.713663101E0,-5.312066078E-1
1.887668454E1,-7.477570772E-1,-9.728020668E0,-6.436693072E-1
1.889549313E1,-7.668996453E-1,-9.696913719E0,-6.364908218E-1
1.891430172E1,-8.482556343E-1,-9.683753014E0,-5.491527915E-1
1.893311032E1,-9.044869542E-1,-9.696913719E0,-4.785645306E-1
1.895191896E1,-8.291130662E-1,-9.700503349E0,-4.929214716E-1
1.897072756E1,-7.034898400E-1,-9.696913719E0,-5.946164131E-1
1.898953615E1,-6.652047038E-1,-9.676574707E0,-6.520441771E-1
1.900834474E1,-6.939185858E-1,-9.689735413E0,-5.407779217E-1
1.902715339E1,-7.704889178E-1,-9.713663101E0,-3.840480447E-1
1.904596198E1,-8.590233326E-1,-9.771091461E0,-3.517449200E-1
1.906477058E1,-8.638089895E-1,-9.712467194E0,-6.340979934E-1
1.908357917E1,-7.489534616E-1,-9.631111145E0,-8.350951076E-1
1.910238776E1,-7.441678643E-1,-9.670592308E0,-6.484549642E-1
1.912119641E1,-7.429714203E-1,-9.710074425E0,-4.115654826E-1
1.914000500E1,-7.274180651E-1,-9.723235130E0,-3.337987661E-1
1.915881360E1,-7.010970116E-1,-9.735198975E0,-3.840480447E-1
1.917762219E1,-6.975077987E-1,-9.713663101E0,-5.587241054E-1
1.919643078E1,-6.819544435E-1,-9.675378799E0,-6.711867452E-1
1.921523943E1,-6.831508875E-1,-9.686145782E0,-6.269195080E-1
1.923404802E1,-7.178468108E-1,-9.707681656E0,-4.905286431E-1
1.925285662E1,-7.597211599E-1,-9.711270332E0,-4.354937077E-1
1.927166521E1,-7.453642488E-1,-9.722038269E0,-5.036891699E-1
1.929047386E1,-6.759724021E-1,-9.686145782E0,-6.017948985E-1
1.930928245E1,-6.735795736E-1,-9.671789169E0,-6.173482537E-1
1.932809104E1,-6.867401004E-1,-9.711270332E0,-5.635097623E-1
1.934689964E1,-6.664010882E-1,-9.722038269E0,-5.228317380E-1
1.936570823E1,-6.711867452E-1,-9.706484795E0,-5.467599630E-1
1.938451688E1,-6.664010882E-1,-9.748359680E0,-5.706881881E-1
1.940332547E1,-6.352944374E-1,-9.724431038E0,-5.395814776E-1
1.942213407E1,-6.616154313E-1,-9.646664619E0,-5.611169338E-1
1.944094266E1,-6.675975323E-1,-9.665806770E0,-5.946164131E-1
1.945975125E1,-6.329016089E-1,-9.692128181E0,-6.125625968E-1
1.947855990E1,-6.005984545E-1,-9.713663101E0,-5.970092416E-1
1.949736849E1,-5.898307562E-1,-9.738788605E0,-5.922235847E-1
1.951617709E1,-6.101697683E-1,-9.749555588E0,-5.754738450E-1
1.953498568E1,-6.245267391E-1,-9.707681656E0,-5.599204898E-1
1.955379433E1,-6.281159520E-1,-9.692128181E0,-5.575276613E-1
1.957260292E1,-6.364908218E-1,-9.684949875E0,-5.611169338E-1
1.959141151E1,-6.568298340E-1,-9.693324089E0,-5.659025311E-1
1.961022011E1,-6.723831892E-1,-9.707681656E0,-5.587241054E-1
1.962902870E1,-6.747759581E-1,-9.698110580E0,-5.359922647E-1
1.964783730E1,-6.532405615E-1,-9.687342644E0,-5.144568682E-1
1.966664594E1,-6.520441771E-1,-9.682557106E0,-5.132604837E-1
1.968545454E1,-6.460621357E-1,-9.675378799E0,-5.335994363E-1
1.970426313E1,-6.101697683E-1,-9.682557106E0,-5.814558864E-1
1.972307172E1,-5.850451589E-1,-9.696913719E0,-6.209374666E-1
1.974188037E1,-5.958128572E-1,-9.735198975E0,-6.149554253E-1
1.976068896E1,-6.125625968E-1,-9.725627899E0,-5.718846321E-1
1.977949756E1,-6.412764788E-1,-9.712467194E0,-5.742774606E-1
1.979830615E1,-6.711867452E-1,-9.693324089E0,-5.802595019E-1
1.981711474E1,-6.269195080E-1,-9.696913719E0,-6.029912829E-1
1.983592339E1,-5.910272002E-1,-9.711270332E0,-6.293123364E-1
1.985473198E1,-5.958128572E-1,-9.699306488E0,-6.041877270E-1
1.987354058E1,-5.982056856E-1,-9.712467194E0,-5.754738450E-1
1.989234917E1,-6.305087805E-1,-9.710074425E0,-5.563312769E-1
1.991115782E1,-6.723831892E-1,-9.702896118E0,-5.312066078E-1
1.992996641E1,-6.508477330E-1,-9.717252731E0,-5.730810165E-1
1.994877500E1,-6.723831892E-1,-9.713663101E0,-5.599204898E-1
1.996758360E1,-6.675975323E-1,-9.707681656E0,-5.168496966E-1
1.998639219E1,-6.675975323E-1,-9.722038269E0,-5.228317380E-1
2.000520084E1,-6.532405615E-1,-9.717252731E0,-5.407779217E-1
2.002400943E1,-6.687939167E-1,-9.689735413E0,-5.395814776E-1
2.004281802E1,-6.735795736E-1,-9.682557106E0,-5.347958803E-1
2.006162662E1,-6.867401004E-1,-9.705288887E0,-4.869394004E-1
2.008043526E1,-6.723831892E-1,-9.696913719E0,-4.761717021E-1
2.009924386E1,-6.640082598E-1,-9.714859962E0,-5.072783828E-1
2.011805245E1,-6.484549642E-1,-9.728020668E0,-5.036891699E-1
2.013686104E1,-6.807580590E-1,-9.704092026E0,-4.534398913E-1
2.015566969E1,-6.879364848E-1,-9.671789169E0,-5.156532526E-1
2.017447829E1,-6.233302951E-1,-9.688538551E0,-5.922235847E-1
2.019328688E1,-6.197410822E-1,-9.713663101E0,-5.826523304E-1
2.021209547E1,-6.592226624E-1,-9.726823807E0,-5.228317380E-1
2.023090407E1,-6.472585201E-1,-9.766305923E0,-4.965106845E-1
2.024971271E1,-6.735795736E-1,-9.739984512E0,-5.276173949E-1
2.026852130E1,-6.855437160E-1,-9.705288887E0,-5.383850932E-1
2.028732990E1,-6.747759581E-1,-9.683753014E0,-5.455635786E-1
2.030613849E1,-6.640082598E-1,-9.684949875E0,-5.276173949E-1
2.032494714E1,-6.209374666E-1,-9.714859962E0,-4.893322289E-1
2.034375573E1,-6.652047038E-1,-9.738788605E0,-4.749752879E-1
2.036256433E1,-6.652047038E-1,-9.717252731E0,-4.941178858E-1
2.038137292E1,-6.987041831E-1,-9.696913719E0,-5.036891699E-1
2.040018157E1,-6.604190469E-1,-9.694520950E0,-5.192425251E-1
2.041899016E1,-6.329016089E-1,-9.698110580E0,-5.168496966E-1
2.043779875E1,-6.532405615E-1,-9.692128181E0,-4.905286431E-1
2.045660735E1,-6.879364848E-1,-9.702896118E0,-4.917250574E-1
2.047541599E1,-7.238288522E-1,-9.682557106E0,-4.737788737E-1
2.049422459E1,-6.759724021E-1,-9.705288887E0,-4.917250574E-1
2.051303318E1,-6.436693072E-1,-9.717252731E0,-5.228317380E-1
2.053184177E1,-6.161518097E-1,-9.696913719E0,-5.216353536E-1
2.055065042E1,-6.293123364E-1,-9.719645500E0,-5.108676553E-1
2.056945901E1,-6.628118753E-1,-9.722038269E0,-5.455635786E-1
2.058826761E1,-7.010970116E-1,-9.707681656E0,-5.682953596E-1
2.060707620E1,-7.094719410E-1,-9.680164337E0,-5.682953596E-1
2.062588485E1,-6.352944374E-1,-9.689735413E0,-5.958128572E-1
2.064469344E1,-5.730810165E-1,-9.706484795E0,-5.910272002E-1
2.066350204E1,-5.431707501E-1,-9.705288887E0,-5.324030519E-1
2.068231068E1,-5.862415433E-1,-9.722038269E0,-4.618147612E-1
2.070111927E1,-6.556333899E-1,-9.702896118E0,-4.869394004E-1
2.071992787E1,-6.664010882E-1,-9.717252731E0,-5.623133183E-1
2.073873646E1,-6.987041831E-1,-9.724431038E0,-5.850451589E-1
2.075754506E1,-6.963114142E-1,-9.714859962E0,-5.826523304E-1
2.077635370E1,-7.094719410E-1,-9.687342644E0,-5.288137794E-1
2.079516230E1,-6.831508875E-1,-9.695717812E0,-5.252245665E-1
2.081397089E1,-5.862415433E-1,-9.708877563E0,-5.862415433E-1
2.083277954E1,-5.730810165E-1,-9.738788605E0,-5.994020700E-1
2.085158813E1,-5.802595019E-1,-9.722038269E0,-4.737788737E-1
2.087039672E1,-5.982056856E-1,-9.657432556E0,-4.211367965E-1
2.088920532E1,-6.209374666E-1,-9.670592308E0,-5.252245665E-1
2.090801396E1,-6.185446382E-1,-9.712467194E0,-6.185446382E-1
2.092682256E1,-6.508477330E-1,-9.719645500E0,-5.778666735E-1
2.094563115E1,-6.795616150E-1,-9.748359680E0,-5.503492355E-1
2.096443974E1,-6.771687865E-1,-9.745966911E0,-5.742774606E-1
2.098324839E1,-6.436693072E-1,-9.717252731E0,-5.742774606E-1
2.100205698E1,-6.281159520E-1,-9.700503349E0,-5.706881881E-1
2.102086558E1,-6.005984545E-1,-9.687342644E0,-5.431707501E-1
2.103967422E1,-5.766702294E-1,-9.678967476E0,-5.324030519E-1
2.105848282E1,-5.910272002E-1,-9.732806206E0,-5.754738450E-1
2.107729141E1,-6.448656917E-1,-9.725627899E0,-5.670989752E-1
2.109610000E1,-6.556333899E-1,-9.699306488E0,-5.467599630E-1
2.111490865E1,-6.783652306E-1,-9.677771568E0,-5.156532526E-1
2.113371724E1,-6.652047038E-1,-9.684949875E0,-5.132604837E-1
2.115252584E1,-6.376872063E-1,-9.712467194E0,-5.419743061E-1
2.117133443E1,-6.484549642E-1,-9.720842361E0,-5.682953596E-1
2.119014308E1,-6.508477330E-1,-9.712467194E0,-5.814558864E-1
2.120895167E1,-6.305087805E-1,-9.723235130E0,-5.898307562E-1
2.122776026E1,-6.317051649E-1,-9.702896118E0,-5.563312769E-1
2.124656886E1,-6.424728632E-1,-9.718449593E0,-5.204389095E-1
2.126537750E1,-6.424728632E-1,-9.711270332E0,-5.168496966E-1
2.128418610E1,-6.340979934E-1,-9.705288887E0,-5.946164131E-1
2.130299469E1,-6.125625968E-1,-9.699306488E0,-6.460621357E-1
2.132180334E1,-6.305087805E-1,-9.708877563E0,-6.496513486E-1
2.134061193E1,-6.245267391E-1,-9.714859962E0,-6.065805554E-1
2.135942052E1,-6.352944374E-1,-9.704092026E0,-5.706881881E-1
2.137822912E1,-6.592226624E-1,-9.701699257E0,-5.503492355E-1
2.139703776E1,-6.687939167E-1,-9.706484795E0,-5.503492355E-1
2.141584636E1,-6.448656917E-1,-9.705288887E0,-5.694918036E-1
2.143465495E1,-6.089733839E-1,-9.722038269E0,-5.886343718E-1
2.145346360E1,-6.065805554E-1,-9.726823807E0,-5.898307562E-1
2.147227219E1,-6.496513486E-1,-9.694520950E0,-5.730810165E-1
2.149108078E1,-6.687939167E-1,-9.689735413E0,-5.467599630E-1
2.150988943E1,-6.903293133E-1,-9.696913719E0,-5.288137794E-1
2.152869802E1,-6.209374666E-1,-9.693324089E0,-5.898307562E-1
2.154750662E1,-5.706881881E-1,-9.724431038E0,-6.484549642E-1
2.156631521E1,-5.694918036E-1,-9.760323524E0,-5.778666735E-1
2.158512386E1,-6.197410822E-1,-9.695717812E0,-4.881358147E-1
2.160393245E1,-6.412764788E-1,-9.661021233E0,-5.682953596E-1
2.162274104E1,-5.934200287E-1,-9.665806770E0,-6.951149702E-1
2.164154964E1,-5.563312769E-1,-9.692128181E0,-7.154539824E-1
2.166035828E1,-5.850451589E-1,-9.724431038E0,-6.795616150E-1
2.167916688E1,-5.982056856E-1,-9.750752449E0,-6.089733839E-1
2.169797547E1,-6.041877270E-1,-9.714859962E0,-5.850451589E-1
2.171678412E1,-6.508477330E-1,-9.690931320E0,-5.778666735E-1
2.173559271E1,-6.915257573E-1,-9.687342644E0,-5.503492355E-1
2.175440131E1,-7.022934556E-1,-9.678967476E0,-5.826523304E-1
2.177320990E1,-6.855437160E-1,-9.710074425E0,-6.209374666E-1
2.179201854E1,-6.352944374E-1,-9.724431038E0,-6.017948985E-1
2.181082714E1,-6.293123364E-1,-9.707681656E0,-5.790630579E-1
2.182963573E1,-6.388836503E-1,-9.698110580E0,-5.670989752E-1
2.184844438E1,-6.197410822E-1,-9.689735413E0,-5.766702294E-1
2.186725297E1,-5.862415433E-1,-9.693324089E0,-6.077769399E-1
2.188606157E1,-5.694918036E-1,-9.672985077E0,-6.460621357E-1
2.190487021E1,-5.910272002E-1,-9.708877563E0,-6.532405615E-1
2.192367880E1,-6.137589812E-1,-9.724431038E0,-6.628118753E-1
2.194248740E1,-6.269195080E-1,-9.696913719E0,-6.520441771E-1
2.196129599E1,-6.173482537E-1,-9.706484795E0,-6.652047038E-1
2.198010464E1,-6.053841114E-1,-9.695717812E0,-6.711867452E-1
2.199891323E1,-6.041877270E-1,-9.693324089E0,-6.664010882E-1
2.201772183E1,-5.826523304E-1,-9.700503349E0,-6.412764788E-1
2.203653047E1,-5.982056856E-1,-9.701699257E0,-5.790630579E-1
2.205533907E1,-6.173482537E-1,-9.682557106E0,-5.682953596E-1
2.207414766E1,-6.125625968E-1,-9.698110580E0,-5.910272002E-1
2.209295625E1,-6.209374666E-1,-9.713663101E0,-6.293123364E-1
2.211176490E1,-6.113662124E-1,-9.698110580E0,-6.604190469E-1
2.213057349E1,-5.958128572E-1,-9.678967476E0,-6.364908218E-1
2.214938209E1,-6.089733839E-1,-9.724431038E0,-6.149554253E-1
2.216819073E1,-6.317051649E-1,-9.719645500E0,-6.149554253E-1
2.218699933E1,-6.496513486E-1,-9.684949875E0,-6.448656917E-1
2.220580792E1,-6.305087805E-1,-9.682557106E0,-6.364908218E-1
2.222461657E1,-6.113662124E-1,-9.702896118E0,-6.640082598E-1
2.224342516E1,-5.694918036E-1,-9.698110580E0,-6.903293133E-1
2.226223375E1,-5.958128572E-1,-9.730413437E0,-6.580262184E-1
2.228104235E1,-6.221339107E-1,-9.751948357E0,-5.742774606E-1
2.229985099E1,-6.544370055E-1,-9.671789169E0,-5.335994363E-1
2.231865959E1,-6.221339107E-1,-9.653842926E0,-6.424728632E-1
2.233746818E1,-5.694918036E-1,-9.705288887E0,-7.513462901E-1
2.235627683E1,-5.599204898E-1,-9.735198975E0,-7.178468108E-1
2.237508542E1,-6.065805554E-1,-9.714859962E0,-6.257231236E-1
2.239389401E1,-6.113662124E-1,-9.723235130E0,-5.742774606E-1
2.241270261E1,-6.329016089E-1,-9.696913719E0,-6.053841114E-1
2.243151125E1,-6.711867452E-1,-9.686145782E0,-6.520441771E-1
2.245031985E1,-6.759724021E-1,-9.690931320E0,-6.819544435E-1
2.246912844E1,-6.329016089E-1,-9.684949875E0,-6.951149702E-1
2.248793709E1,-5.503492355E-1,-9.722038269E0,-7.369893789E-1
2.250674568E1,-5.838487148E-1,-9.718449593E0,-6.448656917E-1
2.252555427E1,-6.496513486E-1,-9.699306488E0,-5.647061467E-1
2.254436292E1,-6.951149702E-1,-9.672985077E0,-5.335994363E-1
2.256317151E1,-6.699903607E-1,-9.664610863E0,-5.922235847E-1
2.258198011E1,-6.257231236E-1,-9.698110580E0,-6.424728632E-1
2.260078870E1,-6.221339107E-1,-9.698110580E0,-6.664010882E-1
2.261959735E1,-6.364908218E-1,-9.722038269E0,-6.436693072E-1
2.263840594E1,-6.269195080E-1,-9.716055870E0,-6.221339107E-1
2.265721454E1,-6.209374666E-1,-9.702896118E0,-6.388836503E-1
2.267602318E1,-6.281159520E-1,-9.696913719E0,-6.508477330E-1
2.269483177E1,-6.149554253E-1,-9.696913719E0,-6.448656917E-1
2.271364037E1,-5.874379873E-1,-9.711270332E0,-6.484549642E-1
2.273244896E1,-5.970092416E-1,-9.713663101E0,-6.436693072E-1
2.275125761E1,-6.089733839E-1,-9.700503349E0,-6.496513486E-1
2.277006620E1,-6.053841114E-1,-9.696913719E0,-6.460621357E-1
2.278887480E1,-6.173482537E-1,-9.696913719E0,-6.221339107E-1
2.280768344E1,-6.412764788E-1,-9.712467194E0,-6.053841114E-1
2.282649204E1,-6.520441771E-1,-9.706484795E0,-5.934200287E-1
2.284530063E1,-6.723831892E-1,-9.705288887E0,-5.910272002E-1
2.286410922E1,-6.448656917E-1,-9.718449593E0,-6.185446382E-1
2.288291787E1,-6.137589812E-1,-9.726823807E0,-6.460621357E-1
2.290172646E1,-6.041877270E-1,-9.707681656E0,-6.448656917E-1
2.292053506E1,-6.568298340E-1,-9.695717812E0,-5.862415433E-1
2.293934370E1,-6.879364848E-1,-9.699306488E0,-5.659025311E-1
2.295815230E1,-6.209374666E-1,-9.714859962E0,-6.149554253E-1
2.297696089E1,-5.551348329E-1,-9.701699257E0,-7.082754970E-1
2.299576948E1,-5.826523304E-1,-9.719645500E0,-6.556333899E-1
2.301457813E1,-6.711867452E-1,-9.676574707E0,-4.761717021E-1
2.303338672E1,-6.807580590E-1,-9.640682220E0,-4.510470629E-1
2.305219532E1,-6.077769399E-1,-9.693324089E0,-6.340979934E-1
2.307100391E1,-5.419743061E-1,-9.712467194E0,-7.525427341E-1
2.308981256E1,-5.443671346E-1,-9.732806206E0,-7.561319470E-1
2.310862115E1,-5.886343718E-1,-9.737591743E0,-6.699903607E-1
2.312742974E1,-6.293123364E-1,-9.738788605E0,-5.898307562E-1
2.314623839E1,-6.975077987E-1,-9.708877563E0,-5.407779217E-1
2.316504698E1,-7.238288522E-1,-9.693324089E0,-5.694918036E-1
2.318385558E1,-6.759724021E-1,-9.675378799E0,-6.472585201E-1
2.320266417E1,-5.934200287E-1,-9.708877563E0,-7.070791125E-1
2.322147282E1,-5.946164131E-1,-9.731609344E0,-6.675975323E-1
2.324028141E1,-6.089733839E-1,-9.717252731E0,-5.802595019E-1
2.325909000E1,-6.412764788E-1,-9.699306488E0,-5.335994363E-1
2.327789865E1,-6.568298340E-1,-9.671789169E0,-5.347958803E-1
2.329670724E1,-6.317051649E-1,-9.687342644E0,-5.826523304E-1
2.331551584E1,-6.173482537E-1,-9.706484795E0,-6.448656917E-1
2.333432443E1,-6.185446382E-1,-9.725627899E0,-6.891329288E-1
2.335313308E1,-6.352944374E-1,-9.714859962E0,-6.592226624E-1
2.337194167E1,-6.544370055E-1,-9.714859962E0,-6.616154313E-1
2.339075026E1,-6.149554253E-1,-9.706484795E0,-6.532405615E-1
2.340955891E1,-6.041877270E-1,-9.693324089E0,-6.113662124E-1
2.342836750E1,-6.233302951E-1,-9.683753014E0,-5.383850932E-1
2.344717610E1,-6.269195080E-1,-9.692128181E0,-5.766702294E-1
2.346598469E1,-6.161518097E-1,-9.719645500E0,-6.281159520E-1
2.348479334E1,-6.029912829E-1,-9.705288887E0,-6.652047038E-1
2.350360193E1,-6.233302951E-1,-9.714859962E0,-6.580262184E-1
2.352241052E1,-6.448656917E-1,-9.686145782E0,-6.053841114E-1
2.354121917E1,-6.484549642E-1,-9.689735413E0,-5.946164131E-1
2.356002776E1,-6.209374666E-1,-9.711270332E0,-6.137589812E-1
2.357883636E1,-6.125625968E-1,-9.713663101E0,-6.400800347E-1
2.359764495E1,-5.922235847E-1,-9.705288887E0,-6.305087805E-1
2.361645360E1,-5.934200287E-1,-9.711270332E0,-6.221339107E-1
2.363526219E1,-6.293123364E-1,-9.711270332E0,-6.041877270E-1
2.365407079E1,-6.376872063E-1,-9.698110580E0,-6.065805554E-1
2.367287938E1,-6.747759581E-1,-9.683753014E0,-5.946164131E-1
2.369168802E1,-6.281159520E-1,-9.701699257E0,-6.149554253E-1
2.371049662E1,-5.599204898E-1,-9.694520950E0,-6.783652306E-1
2.372930521E1,-5.742774606E-1,-9.718449593E0,-6.580262184E-1
2.374811381E1,-6.077769399E-1,-9.720842361E0,-5.431707501E-1
2.376692245E1,-6.137589812E-1,-9.650253296E0,-5.288137794E-1
2.378573105E1,-5.970092416E-1,-9.677771568E0,-6.149554253E-1
2.380453964E1,-5.766702294E-1,-9.704092026E0,-6.460621357E-1
2.382334828E1,-5.982056856E-1,-9.708877563E0,-6.556333899E-1
2.384215688E1,-6.113662124E-1,-9.742377281E0,-6.580262184E-1
2.386096547E1,-5.922235847E-1,-9.722038269E0,-6.783652306E-1
2.387977407E1,-6.005984545E-1,-9.704092026E0,-6.699903607E-1
2.389858271E1,-6.209374666E-1,-9.680164337E0,-6.173482537E-1
2.391739131E1,-6.029912829E-1,-9.689735413E0,-5.862415433E-1
2.393619990E1,-5.922235847E-1,-9.696913719E0,-6.137589812E-1
2.395500849E1,-5.599204898E-1,-9.731609344E0,-6.412764788E-1
2.397381714E1,-6.161518097E-1,-9.713663101E0,-5.994020700E-1
2.399262573E1,-6.664010882E-1,-9.693324089E0,-5.395814776E-1
2.401143433E1,-6.939185858E-1,-9.672985077E0,-5.324030519E-1
2.403024292E1,-6.831508875E-1,-9.678967476E0,-5.659025311E-1
2.404905157E1,-6.400800347E-1,-9.695717812E0,-6.149554253E-1
2.406786016E1,-6.209374666E-1,-9.706484795E0,-6.209374666E-1
2.408666875E1,-6.257231236E-1,-9.713663101E0,-5.862415433E-1
2.410547740E1,-6.077769399E-1,-9.698110580E0,-5.766702294E-1
2.412428599E1,-6.149554253E-1,-9.701699257E0,-6.125625968E-1
2.414309459E1,-6.556333899E-1,-9.705288887E0,-6.293123364E-1
2.416190318E1,-6.484549642E-1,-9.692128181E0,-6.197410822E-1
2.418071183E1,-6.424728632E-1,-9.704092026E0,-6.137589812E-1
2.419952042E1,-6.161518097E-1,-9.712467194E0,-6.293123364E-1
2.421832901E1,-5.958128572E-1,-9.712467194E0,-6.029912829E-1
2.423713761E1,-6.317051649E-1,-9.714859962E0,-5.635097623E-1
2.425594625E1,-6.592226624E-1,-9.708877563E0,-5.587241054E-1
2.427475485E1,-6.556333899E-1,-9.708877563E0,-5.814558864E-1
2.429356344E1,-6.436693072E-1,-9.707681656E0,-6.077769399E-1
2.431237204E1,-6.532405615E-1,-9.702896118E0,-6.089733839E-1
2.433118068E1,-6.532405615E-1,-9.711270332E0,-5.898307562E-1
2.434998927E1,-6.329016089E-1,-9.700503349E0,-5.670989752E-1
2.436879787E1,-6.041877270E-1,-9.702896118E0,-6.077769399E-1
2.438760646E1,-6.101697683E-1,-9.699306488E0,-6.077769399E-1
2.440641511E1,-6.388836503E-1,-9.723235130E0,-5.838487148E-1
2.442522370E1,-6.065805554E-1,-9.712467194E0,-6.077769399E-1
2.444403230E1,-5.838487148E-1,-9.699306488E0,-6.520441771E-1
2.446284089E1,-6.281159520E-1,-9.720842361E0,-6.017948985E-1
2.448164954E1,-6.783652306E-1,-9.684949875E0,-4.785645306E-1
2.450045813E1,-6.687939167E-1,-9.655039787E0,-5.168496966E-1
2.451926672E1,-5.994020700E-1,-9.674181938E0,-6.293123364E-1
2.453807532E1,-5.730810165E-1,-9.719645500E0,-6.496513486E-1
2.455688396E1,-6.017948985E-1,-9.732806206E0,-5.826523304E-1
2.457569256E1,-6.400800347E-1,-9.735198975E0,-5.312066078E-1
2.459450115E1,-6.783652306E-1,-9.714859962E0,-5.611169338E-1
2.461330974E1,-6.999006271E-1,-9.696913719E0,-6.041877270E-1
2.463211839E1,-6.616154313E-1,-9.689735413E0,-6.221339107E-1
2.465092698E1,-6.041877270E-1,-9.676574707E0,-6.149554253E-1
2.466973558E1,-5.838487148E-1,-9.700503349E0,-5.766702294E-1
2.468854417E1,-6.281159520E-1,-9.729216576E0,-5.180460811E-1
2.470735282E1,-6.831508875E-1,-9.729216576E0,-5.252245665E-1
2.472616141E1,-6.699903607E-1,-9.694520950E0,-5.934200287E-1
2.474497000E1,-6.149554253E-1,-9.681360245E0,-6.269195080E-1
2.476377860E1,-5.910272002E-1,-9.698110580E0,-6.317051649E-1
2.478258724E1,-6.675975323E-1,-9.687342644E0,-5.611169338E-1
2.480139584E1,-6.783652306E-1,-9.720842361E0,-5.132604837E-1
2.482020443E1,-6.675975323E-1,-9.710074425E0,-5.551348329E-1
2.483901302E1,-6.257231236E-1,-9.714859962E0,-5.910272002E-1
2.485782167E1,-5.898307562E-1,-9.699306488E0,-6.137589812E-1
2.487663026E1,-6.436693072E-1,-9.692128181E0,-5.694918036E-1
2.489543886E1,-6.520441771E-1,-9.694520950E0,-5.431707501E-1
2.491424745E1,-6.807580590E-1,-9.686145782E0,-5.527420044E-1
2.493305604E1,-6.616154313E-1,-9.690931320E0,-5.982056856E-1
2.495186469E1,-6.460621357E-1,-9.694520950E0,-6.089733839E-1
2.497067328E1,-6.544370055E-1,-9.707681656E0,-6.137589812E-1
2.498948188E1,-6.233302951E-1,-9.705288887E0,-5.778666735E-1
2.500829047E1,-6.149554253E-1,-9.722038269E0,-5.611169338E-1
2.502709912E1,-6.101697683E-1,-9.704092026E0,-5.587241054E-1
2.504590771E1,-6.460621357E-1,-9.706484795E0,-5.539384484E-1
2.506471630E1,-6.628118753E-1,-9.713663101E0,-5.898307562E-1
2.508352490E1,-6.747759581E-1,-9.718449593E0,-5.742774606E-1
2.510233354E1,-6.867401004E-1,-9.710074425E0,-5.874379873E-1
2.512114214E1,-6.436693072E-1,-9.696913719E0,-5.706881881E-1
2.513995073E1,-6.400800347E-1,-9.705288887E0,-5.623133183E-1
2.515875933E1,-6.364908218E-1,-9.701699257E0,-5.886343718E-1
2.517756797E1,-6.305087805E-1,-9.719645500E0,-5.886343718E-1
2.519637657E1,-6.317051649E-1,-9.724431038E0,-5.096712112E-1
2.521518516E1,-6.508477330E-1,-9.675378799E0,-4.666004181E-1
2.523399375E1,-6.388836503E-1,-9.650253296E0,-5.407779217E-1
2.525280235E1,-6.245267391E-1,-9.676574707E0,-6.149554253E-1
2.527161099E1,-6.221339107E-1,-9.724431038E0,-6.197410822E-1
2.529041959E1,-6.197410822E-1,-9.716055870E0,-5.599204898E-1
2.530922818E1,-6.340979934E-1,-9.731609344E0,-5.443671346E-1
2.532803677E1,-6.747759581E-1,-9.716055870E0,-5.814558864E-1
2.534684542E1,-6.987041831E-1,-9.694520950E0,-5.670989752E-1
2.536565401E1,-6.819544435E-1,-9.694520950E0,-5.407779217E-1
2.538446261E1,-6.197410822E-1,-9.692128181E0,-5.491527915E-1
2.540327120E1,-5.874379873E-1,-9.723235130E0,-5.790630579E-1
2.542207980E1,-6.161518097E-1,-9.728020668E0,-5.742774606E-1
2.544088844E1,-6.568298340E-1,-9.718449593E0,-5.312066078E-1
2.545969704E1,-7.094719410E-1,-9.675378799E0,-5.180460811E-1
2.547850563E1,-6.747759581E-1,-9.692128181E0,-5.515456200E-1
2.549731422E1,-6.089733839E-1,-9.699306488E0,-5.970092416E-1
2.551612287E1,-6.137589812E-1,-9.700503349E0,-5.718846321E-1
2.553493146E1,-6.520441771E-1,-9.711270332E0,-5.371887088E-1
2.555374006E1,-6.735795736E-1,-9.696913719E0,-4.893322289E-1
2.557254865E1,-6.831508875E-1,-9.700503349E0,-4.893322289E-1
2.559135724E1,-6.879364848E-1,-9.710074425E0,-4.917250574E-1
2.561016584E1,-6.723831892E-1,-9.699306488E0,-5.084748268E-1
2.562897448E1,-6.329016089E-1,-9.712467194E0,-5.300102234E-1
2.564778308E1,-5.862415433E-1,-9.702896118E0,-5.670989752E-1
2.566659167E1,-5.204389095E-1,-9.723235130E0,-5.754738450E-1
2.568540026E1,-5.335994363E-1,-9.729216576E0,-5.718846321E-1
2.570420891E1,-6.173482537E-1,-9.699306488E0,-5.407779217E-1
2.572301750E1,-6.424728632E-1,-9.708877563E0,-5.168496966E-1
2.574182610E1,-6.879364848E-1,-9.706484795E0,-5.192425251E-1
2.576063469E1,-6.783652306E-1,-9.694520950E0,-5.647061467E-1
2.577944334E1,-6.592226624E-1,-9.711270332E0,-5.874379873E-1
2.579825193E1,-6.484549642E-1,-9.724431038E0,-5.551348329E-1
2.581706052E1,-6.400800347E-1,-9.695717812E0,-5.371887088E-1
2.583586912E1,-6.675975323E-1,-9.687342644E0,-4.857429862E-1
2.585467771E1,-7.022934556E-1,-9.713663101E0,-4.498506486E-1
2.587348630E1,-6.819544435E-1,-9.723235130E0,-5.000999570E-1
2.589229495E1,-6.424728632E-1,-9.702896118E0,-5.730810165E-1
2.591110355E1,-6.340979934E-1,-9.742377281E0,-5.934200287E-1
2.592991214E1,-6.436693072E-1,-9.710074425E0,-5.168496966E-1
2.594872073E1,-6.592226624E-1,-9.649057388E0,-5.264210105E-1
2.596752933E1,-6.161518097E-1,-9.688538551E0,-5.874379873E-1
2.598633797E1,-5.994020700E-1,-9.723235130E0,-5.742774606E-1
2.600514657E1,-6.029912829E-1,-9.720842361E0,-5.718846321E-1
2.602395516E1,-5.814558864E-1,-9.741181374E0,-5.934200287E-1
2.604276375E1,-5.922235847E-1,-9.724431038E0,-5.886343718E-1
2.606157235E1,-6.233302951E-1,-9.705288887E0,-5.443671346E-1
2.608038099E1,-6.855437160E-1,-9.696913719E0,-4.869394004E-1
2.609918959E1,-6.843472719E-1,-9.704092026E0,-4.941178858E-1
2.611799818E1,-6.460621357E-1,-9.705288887E0,-5.790630579E-1
2.613680677E1,-6.484549642E-1,-9.729216576E0,-6.137589812E-1
2.615561537E1,-6.735795736E-1,-9.711270332E0,-5.479564071E-1
2.617442401E1,-6.580262184E-1,-9.699306488E0,-4.929214716E-1
2.619323261E1,-6.364908218E-1,-9.686145782E0,-4.677968323E-1
2.621204120E1,-6.221339107E-1,-9.701699257E0,-5.156532526E-1
2.623084980E1,-6.245267391E-1,-9.694520950E0,-5.922235847E-1
2.624965839E1,-6.340979934E-1,-9.719645500E0,-6.544370055E-1
2.626846698E1,-6.293123364E-1,-9.726823807E0,-6.448656917E-1
2.628727563E1,-6.185446382E-1,-9.724431038E0,-5.623133183E-1
2.630608422E1,-6.388836503E-1,-9.725627899E0,-5.036891699E-1
2.632489282E1,-6.580262184E-1,-9.708877563E0,-5.000999570E-1
2.634370141E1,-6.544370055E-1,-9.682557106E0,-5.527420044E-1
2.636251006E1,-5.874379873E-1,-9.702896118E0,-6.197410822E-1
2.638131865E1,-6.149554253E-1,-9.696913719E0,-6.113662124E-1
2.640012724E1,-6.305087805E-1,-9.698110580E0,-5.335994363E-1
2.641893584E1,-6.508477330E-1,-9.717252731E0,-4.821537733E-1
2.643774443E1,-6.364908218E-1,-9.707681656E0,-4.857429862E-1
2.645655302E1,-6.376872063E-1,-9.707681656E0,-5.395814776E-1
2.647536162E1,-6.269195080E-1,-9.701699257E0,-5.838487148E-1
2.649417026E1,-6.412764788E-1,-9.728020668E0,-5.802595019E-1
2.651297886E1,-6.460621357E-1,-9.725627899E0,-5.682953596E-1
2.653178745E1,-6.664010882E-1,-9.710074425E0,-5.647061467E-1
2.655059605E1,-6.855437160E-1,-9.700503349E0,-5.084748268E-1
2.656940464E1,-6.412764788E-1,-9.716055870E0,-5.012963414E-1
2.658821323E1,-5.874379873E-1,-9.695717812E0,-5.611169338E-1
2.660702188E1,-5.682953596E-1,-9.722038269E0,-5.946164131E-1
2.662583047E1,-6.364908218E-1,-9.737591743E0,-4.821537733E-1
2.664463907E1,-7.022934556E-1,-9.668199539E0,-4.402793646E-1
2.666344766E1,-6.568298340E-1,-9.670592308E0,-5.838487148E-1
2.668225625E1,-6.305087805E-1,-9.680164337E0,-6.771687865E-1
2.670106490E1,-6.065805554E-1,-9.722038269E0,-6.005984545E-1
2.671987349E1,-6.508477330E-1,-9.719645500E0,-5.036891699E-1
2.673868209E1,-6.592226624E-1,-9.735198975E0,-4.845465720E-1
2.675749068E1,-6.173482537E-1,-9.713663101E0,-5.347958803E-1
2.677629927E1,-6.257231236E-1,-9.692128181E0,-5.659025311E-1
2.679510787E1,-6.293123364E-1,-9.698110580E0,-5.515456200E-1
2.681391651E1,-6.436693072E-1,-9.689735413E0,-5.443671346E-1
2.683272511E1,-6.687939167E-1,-9.712467194E0,-5.742774606E-1
2.685153370E1,-6.771687865E-1,-9.710074425E0,-5.647061467E-1
2.687034230E1,-6.939185858E-1,-9.717252731E0,-5.419743061E-1
2.688915089E1,-6.795616150E-1,-9.680164337E0,-5.072783828E-1
2.690795948E1,-6.472585201E-1,-9.664610863E0,-5.204389095E-1
2.692676808E1,-6.089733839E-1,-9.710074425E0,-5.611169338E-1
2.694557672E1,-6.089733839E-1,-9.713663101E0,-5.802595019E-1
2.696438532E1,-6.400800347E-1,-9.737591743E0,-5.778666735E-1
2.698319391E1,-6.568298340E-1,-9.705288887E0,-5.670989752E-1
2.700200250E1,-6.687939167E-1,-9.695717812E0,-5.826523304E-1
2.702081110E1,-6.520441771E-1,-9.713663101E0,-5.694918036E-1
2.703961969E1,-6.460621357E-1,-9.707681656E0,-5.611169338E-1
2.705842828E1,-6.400800347E-1,-9.688538551E0,-5.730810165E-1
2.707723693E1,-6.460621357E-1,-9.736394882E0,-6.161518097E-1
2.709604552E1,-6.364908218E-1,-9.763913155E0,-6.352944374E-1
2.711485412E1,-6.472585201E-1,-9.677771568E0,-5.946164131E-1
2.713366271E1,-6.472585201E-1,-9.693324089E0,-5.551348329E-1
2.715247131E1,-6.472585201E-1,-9.734002113E0,-5.670989752E-1
2.717127990E1,-6.472585201E-1,-9.717252731E0,-5.694918036E-1
2.719008849E1,-6.053841114E-1,-9.680164337E0,-6.137589812E-1
2.720889714E1,-5.168496966E-1,-9.692128181E0,-6.855437160E-1
2.722770573E1,-4.761717021E-1,-9.694520950E0,-6.699903607E-1
2.724651433E1,-5.240281820E-1,-9.698110580E0,-5.491527915E-1
2.726532292E1,-6.293123364E-1,-9.692128181E0,-4.426721931E-1
2.728413151E1,-6.496513486E-1,-9.674181938E0,-5.216353536E-1
2.730294011E1,-6.293123364E-1,-9.672985077E0,-6.628118753E-1
2.732174870E1,-6.520441771E-1,-9.748359680E0,-6.652047038E-1
2.734055730E1,-7.058826685E-1,-9.729216576E0,-5.324030519E-1
2.735936594E1,-7.381857634E-1,-9.651450157E0,-5.132604837E-1
2.737817454E1,-6.963114142E-1,-9.661021233E0,-5.527420044E-1
2.739698313E1,-6.364908218E-1,-9.720842361E0,-5.312066078E-1
2.741579172E1,-6.245267391E-1,-9.735198975E0,-5.060819983E-1
2.743460032E1,-6.197410822E-1,-9.731609344E0,-5.431707501E-1
2.745340891E1,-6.329016089E-1,-9.731609344E0,-6.508477330E-1
2.747221750E1,-6.221339107E-1,-9.731609344E0,-7.130611539E-1
2.749102610E1,-6.807580590E-1,-9.707681656E0,-6.472585201E-1
2.750983474E1,-6.807580590E-1,-9.677771568E0,-6.125625968E-1
2.752864334E1,-6.149554253E-1,-9.689735413E0,-6.580262184E-1
2.754745193E1,-5.778666735E-1,-9.701699257E0,-6.843472719E-1
2.756626052E1,-5.850451589E-1,-9.713663101E0,-6.364908218E-1
2.758506912E1,-6.089733839E-1,-9.707681656E0,-5.958128572E-1
2.760387771E1,-6.101697683E-1,-9.717252731E0,-5.635097623E-1
2.762268631E1,-5.862415433E-1,-9.682557106E0,-5.958128572E-1
2.764149490E1,-5.982056856E-1,-9.682557106E0,-6.652047038E-1
2.766030354E1,-6.699903607E-1,-9.704092026E0,-6.484549642E-1
2.767911214E1,-6.855437160E-1,-9.712467194E0,-6.125625968E-1
2.769792073E1,-6.568298340E-1,-9.678967476E0,-5.814558864E-1
2.771672933E1,-6.173482537E-1,-9.710074425E0,-6.221339107E-1
2.773553792E1,-6.101697683E-1,-9.699306488E0,-6.197410822E-1
2.775434651E1,-6.161518097E-1,-9.695717812E0,-6.436693072E-1
2.777315511E1,-6.017948985E-1,-9.704092026E0,-6.723831892E-1
2.779196370E1,-5.934200287E-1,-9.700503349E0,-7.142575383E-1
2.781077230E1,-5.718846321E-1,-9.696913719E0,-6.975077987E-1
2.782958094E1,-5.874379873E-1,-9.683753014E0,-6.628118753E-1
2.784838954E1,-5.970092416E-1,-9.693324089E0,-6.640082598E-1
2.786719813E1,-6.029912829E-1,-9.676574707E0,-6.723831892E-1
2.788600672E1,-6.077769399E-1,-9.694520950E0,-6.831508875E-1
2.790481532E1,-6.161518097E-1,-9.698110580E0,-6.999006271E-1
2.792362391E1,-6.077769399E-1,-9.684949875E0,-7.453642488E-1
2.794243250E1,-6.329016089E-1,-9.692128181E0,-7.250252366E-1
2.796124110E1,-6.340979934E-1,-9.717252731E0,-6.819544435E-1
2.798004969E1,-6.329016089E-1,-9.710074425E0,-6.544370055E-1
2.799885828E1,-6.197410822E-1,-9.705288887E0,-6.903293133E-1
2.801766693E1,-6.269195080E-1,-9.724431038E0,-7.106683254E-1
2.803647552E1,-6.305087805E-1,-9.707681656E0,-6.532405615E-1
2.805528412E1,-6.352944374E-1,-9.652647018E0,-6.592226624E-1
2.807409271E1,-6.185446382E-1,-9.678967476E0,-7.214360237E-1
2.809290130E1,-5.742774606E-1,-9.680164337E0,-7.010970116E-1
2.811170990E1,-5.467599630E-1,-9.706484795E0,-6.771687865E-1
2.813051849E1,-5.659025311E-1,-9.722038269E0,-6.628118753E-1
2.814932709E1,-5.778666735E-1,-9.723235130E0,-6.939185858E-1
2.816813568E1,-6.065805554E-1,-9.699306488E0,-7.298108935E-1
2.818694427E1,-6.317051649E-1,-9.707681656E0,-7.549355626E-1
2.820575287E1,-6.041877270E-1,-9.696913719E0,-7.549355626E-1
2.822456151E1,-5.539384484E-1,-9.672985077E0,-8.135597110E-1
2.824337011E1,-5.455635786E-1,-9.725627899E0,-8.446664214E-1
2.826217870E1,-6.257231236E-1,-9.779465675E0,-7.728816867E-1
2.828098730E1,-8.267202377E-1,-9.669396400E0,-7.238288522E-1
2.829979589E1,-6.759724021E-1,-9.658628464E0,-7.250252366E-1
2.831860448E1,-5.527420044E-1,-9.665806770E0,-7.046862841E-1
2.833741308E1,-5.718846321E-1,-9.682557106E0,-7.022934556E-1
2.835622167E1,-5.659025311E-1,-9.711270332E0,-6.472585201E-1
2.837503026E1,-6.173482537E-1,-9.717252731E0,-5.659025311E-1
2.839383886E1,-6.412764788E-1,-9.736394882E0,-5.838487148E-1
2.841264745E1,-6.125625968E-1,-9.720842361E0,-6.508477330E-1
2.843145610E1,-6.305087805E-1,-9.695717812E0,-6.388836503E-1
2.845026469E1,-6.532405615E-1,-9.701699257E0,-5.838487148E-1
2.846907328E1,-6.281159520E-1,-9.694520950E0,-6.580262184E-1
2.848788188E1,-5.443671346E-1,-9.725627899E0,-7.501499057E-1
2.850669047E1,-5.407779217E-1,-9.729216576E0,-6.939185858E-1
2.852549907E1,-5.682953596E-1,-9.705288887E0,-5.946164131E-1
2.854430766E1,-5.754738450E-1,-9.696913719E0,-6.029912829E-1
2.856311625E1,-5.491527915E-1,-9.653842926E0,-6.364908218E-1
2.858192485E1,-5.419743061E-1,-9.699306488E0,-5.862415433E-1
2.860073344E1,-5.886343718E-1,-9.688538551E0,-5.647061467E-1
2.861954204E1,-6.340979934E-1,-9.699306488E0,-6.173482537E-1
2.863835068E1,-6.628118753E-1,-9.708877563E0,-6.113662124E-1
2.865715927E1,-6.927221417E-1,-9.710074425E0,-5.766702294E-1
2.867596787E1,-7.130611539E-1,-9.670592308E0,-5.754738450E-1
2.869477646E1,-6.879364848E-1,-9.729216576E0,-6.951149702E-1
2.871358506E1,-6.412764788E-1,-9.741181374E0,-8.243274093E-1
2.873239365E1,-5.670989752E-1,-9.688538551E0,-9.104689956E-1
2.875120224E1,-5.276173949E-1,-9.726823807E0,-9.200403094E-1
2.877001084E1,-5.132604837E-1,-9.690931320E0,-8.650053740E-1
2.878881943E1,-5.551348329E-1,-9.655039787E0,-7.704889178E-1
2.880762802E1,-5.527420044E-1,-9.700503349E0,-6.412764788E-1
2.882643662E1,-5.886343718E-1,-9.675378799E0,-5.276173949E-1
2.884524521E1,-6.747759581E-1,-9.657432556E0,-5.419743061E-1
2.886405380E1,-6.711867452E-1,-9.650253296E0,-7.250252366E-1
2.888286240E1,-6.556333899E-1,-9.664610863E0,-8.075776696E-1
2.890167104E1,-6.532405615E-1,-9.689735413E0,-8.554341197E-1
2.892047964E1,-5.802595019E-1,-9.696913719E0,-9.822536707E-1
2.893928823E1,-5.682953596E-1,-9.698110580E0,-9.870393276E-1
2.895809683E1,-5.766702294E-1,-9.677771568E0,-9.236295223E-1
2.897690542E1,-4.869394004E-1,-9.695717812E0,-8.745766878E-1
2.899571401E1,-4.546363056E-1,-9.719645500E0,-8.338986635E-1
2.901452261E1,-4.606183469E-1,-9.682557106E0,-7.872386575E-1
2.903333120E1,-5.802595019E-1,-9.674181938E0,-7.848458290E-1
2.905213980E1,-6.556333899E-1,-9.643074989E0,-7.788637877E-1
2.907094839E1,-6.412764788E-1,-9.695717812E0,-7.250252366E-1
2.908975698E1,-6.640082598E-1,-9.698110580E0,-6.783652306E-1
2.910856558E1,-6.699903607E-1,-9.663414001E0,-6.675975323E-1
2.912737417E1,-7.070791125E-1,-9.661021233E0,-7.393822074E-1
2.914618276E1,-7.429714203E-1,-9.659825325E0,-7.956135273E-1
2.916499136E1,-7.286145091E-1,-9.657432556E0,-8.901300430E-1
2.918380000E1,-6.580262184E-1,-9.658628464E0,-8.697910309E-1
2.920260860E1,-6.520441771E-1,-9.650253296E0,-7.238288522E-1
2.922141719E1,-6.305087805E-1,-9.661021233E0,-7.250252366E-1
2.924022579E1,-6.041877270E-1,-9.684949875E0,-8.721838593E-1
2.925903438E1,-5.946164131E-1,-9.696913719E0,-9.475577474E-1
2.927784297E1,-6.113662124E-1,-9.696913719E0,-9.284151793E-1
2.929665157E1,-6.939185858E-1,-9.681360245E0,-8.889335990E-1
2.931546016E1,-7.525427341E-1,-9.662218094E0,-8.913264275E-1
2.933426875E1,-7.202396393E-1,-9.663414001E0,-8.422735929E-1
2.935307735E1,-7.010970116E-1,-9.698110580E0,-7.836494446E-1
2.937188594E1,-7.465606928E-1,-9.678967476E0,-7.034898400E-1
2.939069454E1,-8.099704385E-1,-9.722038269E0,-7.094719410E-1
2.940950313E1,-7.597211599E-1,-9.766305923E0,-8.542376757E-1
2.942831172E1,-6.580262184E-1,-9.723235130E0,-1.046859860E0
2.944712032E1,-5.324030519E-1,-9.669396400E0,-1.342373490E0
2.946592891E1,-3.565305769E-1,-9.656235695E0,-1.549352646E0
2.948473750E1,-4.594219327E-1,-9.627521515E0,-1.225125194E0
2.950354610E1,-8.111668825E-1,-9.633503914E0,-4.546363056E-1
2.952235474E1,-1.085145116E0,-9.760323524E0,8.255238086E-2
2.954116334E1,-1.165304661E0,-9.747162819E0,2.751746029E-2
2.955997193E1,-9.966106415E-1,-9.640682220E0,-4.941178858E-1
2.957878052E1,-8.925228715E-1,-9.632308006E0,-1.019342422E0
2.959758912E1,-9.296116233E-1,-9.659825325E0,-1.256231904E0
2.961639771E1,-8.793623447E-1,-9.692128181E0,-1.106680512E0
2.963520630E1,-8.542376757E-1,-9.621540070E0,-6.628118753E-1
2.965401490E1,-7.441678643E-1,-9.644271851E0,-3.780659735E-1
2.967282349E1,-5.898307562E-1,-9.712467194E0,-4.319044948E-1
2.969163209E1,-4.977070987E-1,-9.729216576E0,-6.819544435E-1
2.971044068E1,-5.228317380E-1,-9.741181374E0,-9.236295223E-1
2.972924927E1,-7.716853023E-1,-9.778269768E0,-1.000199914E0
2.974805787E1,-8.925228715E-1,-9.767501831E0,-8.530412912E-1
2.976686646E1,-6.269195080E-1,-9.704092026E0,-1.277767301E0
2.978567506E1,-3.373879790E-1,-9.694520950E0,-1.360319614E0
2.980448365E1,-1.914258152E-1,-9.713663101E0,-5.324030519E-1
2.982329224E1,-4.701896608E-1,-9.749555588E0,8.135596663E-2
2.984210084E1,-8.482556343E-1,-9.775876999E0,-2.440679073E-1
2.986090948E1,-1.061216831E0,-9.678967476E0,-6.879364848E-1
2.987971802E1,-1.183250785E0,-9.485149384E0,-9.475577474E-1
2.989852667E1,-1.042074203E0,-9.536594391E0,-1.124626637E0
2.991733526E1,-8.123632669E-1,-9.656235695E0,-7.561319470E-1
2.993614386E1,-5.012963414E-1,-9.777072906E0,-2.189432681E-1
2.995495245E1,-3.469592929E-1,-9.803394318E0,-2.033899166E-2
2.997376105E1,-4.067798555E-1,-9.734002113E0,5.982056726E-3
2.999256964E1,-4.438686073E-1,-9.689735413E0,-1.698904037E-1
3.001137823E1,-7.070791125E-1,-9.722038269E0,-4.486542344E-1
3.003018683E1,-1.075573802E0,-9.609575272E0,-5.754738450E-1
3.004899542E1,-1.255035520E0,-9.646664619E0,-5.874379873E-1
3.006780401E1,-1.176072359E0,-9.745966911E0,-3.840480447E-1
3.008661261E1,-1.004985452E0,-9.701699257E0,-2.727817893E-1
3.010542120E1,-8.231309652E-1,-9.669396400E0,-4.331009090E-1
3.012422980E1,-6.125625968E-1,-9.651450157E0,-5.611169338E-1
3.014303839E1,-3.768695593E-1,-9.767501831E0,-5.742774606E-1
3.016184698E1,-1.950150430E-1,-9.854840279E0,-5.551348329E-1
3.018065558E1,-5.383851007E-2,-9.791430473E0,-7.369893789E-1
3.019946417E1,-1.914258115E-2,-9.717252731E0,-9.439685345E-1
3.021827276E1,-1.591227055E-1,-9.769894600E0,-9.619147182E-1
3.023708136E1,-4.271188378E-1,-9.757930756E0,-7.357929349E-1
3.025588995E1,-7.310073376E-1,-9.780662537E0,-5.647061467E-1
3.027469855E1,-9.415757060E-1,-9.769894600E0,-5.288137794E-1
3.029350714E1,-9.798609018E-1,-9.735198975E0,-5.180460811E-1
3.031231573E1,-9.415757060E-1,-9.695717812E0,-4.869394004E-1
3.033112438E1,-8.518448472E-1,-9.702896118E0,-5.670989752E-1
3.034993292E1,-6.963114142E-1,-9.695717812E0,-6.735795736E-1
3.036874151E1,-5.563312769E-1,-9.693324089E0,-7.621139884E-1
3.038755011E1,-5.048855543E-1,-9.722038269E0,-8.434699774E-1
3.040635870E1,-6.185446382E-1,-9.741181374E0,-8.063812256E-1
3.042516735E1,-7.357929349E-1,-9.710074425E0,-7.357929349E-1
3.044397594E1,-8.183453679E-1,-9.652647018E0,-6.975077987E-1
3.046278454E1,-8.267202377E-1,-9.671789169E0,-7.178468108E-1
3.048159313E1,-7.980063558E-1,-9.677771568E0,-7.752745152E-1
3.050040172E1,-7.453642488E-1,-9.700503349E0,-8.291130662E-1
3.051921032E1,-6.675975323E-1,-9.696913719E0,-8.374879360E-1
3.053801891E1,-6.257231236E-1,-9.682557106E0,-8.829515576E-1
3.055682750E1,-6.436693072E-1,-9.737591743E0,-9.391828775E-1
3.057563610E1,-7.633104324E-1,-9.737591743E0,-9.822536707E-1
3.059444469E1,-8.853443861E-1,-9.664610863E0,-9.714859724E-1
3.061325329E1,-9.164510965E-1,-9.639486313E0,-9.834501147E-1
3.063206188E1,-8.781659007E-1,-9.637093544E0,-1.056431174E0
3.065087047E1,-8.267202377E-1,-9.635896683E0,-1.130608678E0
3.066967907E1,-7.788637877E-1,-9.712467194E0,-1.127019525E0
3.068848766E1,-7.118647099E-1,-9.689735413E0,-1.081555843E0
3.070729625E1,-6.604190469E-1,-9.617950439E0,-1.097109199E0
3.072610485E1,-5.682953596E-1,-9.669396400E0,-1.106680512E0
3.074491344E1,-5.575276613E-1,-9.676574707E0,-1.130608678E0
3.076372204E1,-6.496513486E-1,-9.625128746E0,-1.162911773E0
3.078253063E1,-7.274180651E-1,-9.649057388E0,-1.252642632E0
3.080133922E1,-8.231309652E-1,-9.750752449E0,-1.392622828E0
3.082014782E1,-9.439685345E-1,-9.701699257E0,-1.476371527E0
3.083895641E1,-9.870393276E-1,-9.700503349E0,-1.462014675E0
3.085776500E1,-9.990034699E-1,-9.677771568E0,-1.404586911E0
3.087657360E1,-9.224331379E-1,-9.667003632E0,-1.381855130E0
3.089538219E1,-8.434699774E-1,-9.631111145E0,-1.457229018E0
3.091419079E1,-8.279166222E-1,-9.683753014E0,-1.524227977E0
3.093299938E1,-9.499505758E-1,-9.659825325E0,-1.594816327E0
3.095180797E1,-9.990034699E-1,-9.561718941E0,-1.719243050E0
3.097061657E1,-9.343972206E-1,-9.558130264E0,-1.862812400E0
3.098942516E1,-8.135597110E-1,-9.625128746E0,-1.901097536E0
3.100823375E1,-8.434699774E-1,-9.693324089E0,-1.786242127E0
3.102704235E1,-9.667003751E-1,-9.617950439E0,-1.613958836E0
3.104585094E1,-1.095912814E0,-9.492327690E0,-1.737189293E0
3.106465954E1,-1.022931695E0,-9.455238342E0,-1.830509305E0
3.108346813E1,-9.463613629E-1,-9.409774780E0,-1.936989903E0
3.110227672E1,-9.774680734E-1,-9.340383530E0,-1.835294962E0
3.112108532E1,-1.095912814E0,-9.298508644E0,-1.523031592E0
3.113989391E1,-1.079162955E0,-9.336793900E0,-1.552941918E0
3.115870250E1,-9.236295223E-1,-9.384650230E0,-1.858026743E0
3.117751110E1,-7.369893789E-1,-9.373882294E0,-2.076970100E0
3.119631969E1,-7.310073376E-1,-9.305686951E0,-1.989632010E0
3.121512829E1,-8.638089895E-1,-9.318847656E0,-1.606780410E0
3.123393688E1,-1.018146038E0,-9.294919968E0,-1.282552958E0
3.125274547E1,-1.232303619E0,-9.357132912E0,-1.262213945E0
3.127155407E1,-1.500299811E0,-9.432506561E0,-1.432104349E0
3.129036266E1,-1.606780410E0,-9.412167549E0,-1.651047587E0
3.130917125E1,-1.610369682E0,-9.384650230E0,-1.808973908E0
3.132797985E1,-1.343569875E0,-9.324830055E0,-1.807777524E0
3.134678844E1,-1.087537885E0,-9.282955170E0,-1.532602906E0
3.136559704E1,-9.391828775E-1,-9.473184586E0,-1.432104349E0
3.138440563E1,-8.003991842E-1,-9.584450722E0,-1.655833244E0
3.140321422E1,-7.405785918E-1,-9.597611427E0,-1.959721804E0
3.142202282E1,-8.231309652E-1,-9.558130264E0,-2.047059774E0
3.144083141E1,-1.091127157E0,-9.473184586E0,-1.904686809E0
3.145964000E1,-1.320838094E0,-9.352347374E0,-1.673779488E0
3.147844860E1,-1.373480201E0,-9.261420250E0,-1.529013634E0
3.149725719E1,-1.220339537E0,-9.409774780E0,-1.416550994E0
3.151606579E1,-1.115055323E0,-9.576076508E0,-1.283749342E0
3.153487438E1,-9.355936646E-1,-9.566504478E0,-1.208375454E0
3.155368297E1,-7.764709592E-1,-9.605986595E0,-1.276570916E0
3.157249157E1,-7.489534616E-1,-9.738788605E0,-1.342373490E0
3.159130016E1,-7.334001660E-1,-9.824930191E0,-1.391426325E0
3.161010875E1,-7.764709592E-1,-9.987641335E0,-1.436890006E0
3.162891735E1,-9.140582681E-1,-1.016231823E1,-1.556531072E0
3.164772594E1,-1.075573802E0,-9.942177773E0,-1.779063582E0
3.166653454E1,-1.039681435E0,-9.564111710E0,-1.877169371E0
3.168534313E1,-9.786644578E-1,-9.427721024E0,-1.554138303E0
3.170415172E1,-8.817551732E-1,-9.549755096E0,-9.954141974E-1
3.172296032E1,-7.501499057E-1,-9.676574707E0,-6.532405615E-1
3.174176891E1,-4.247260094E-1,-9.763913155E0,-7.310073376E-1
3.176057750E1,-1.698904037E-1,-9.761520386E0,-9.379864931E-1
3.177938610E1,-8.853443712E-2,-9.741181374E0,-1.015753269E0
3.179819469E1,-6.460621208E-2,-9.757930756E0,-9.463613629E-1
3.181700323E1,-1.914258152E-1,-9.667003632E0,-8.171489239E-1
3.183581183E1,-4.067798555E-1,-9.738788605E0,-7.776673436E-1
3.185462042E1,-5.946164131E-1,-9.723235130E0,-7.776673436E-1
3.187342907E1,-7.274180651E-1,-9.657432556E0,-8.231309652E-1
3.189223761E1,-6.340979934E-1,-9.671789169E0,-6.568298340E-1
3.191104620E1,-5.946164131E-1,-9.668199539E0,-4.103690982E-1
3.192985480E1,-4.905286431E-1,-9.650253296E0,-4.342973232E-1
3.194866339E1,-3.206382394E-1,-9.670592308E0,-8.195417523E-1
3.196747198E1,-1.782652885E-1,-9.672985077E0,-1.069591761E0
3.198628058E1,-1.591227055E-1,-9.602396965E0,-1.060020447E0
3.200508917E1,-2.057827413E-1,-9.531808853E0,-8.925228715E-1
3.202389776E1,-1.459621787E-1,-9.558130264E0,-8.279166222E-1
3.204270636E1,8.374879137E-3,-9.693324089E0,-7.369893789E-1
3.206151495E1,8.973085135E-2,-9.766305923E0,-6.089733839E-1
3.208032354E1,7.657032460E-2,-9.786644936E0,-6.029912829E-1
3.209913214E1,-7.537391037E-2,-9.791430473E0,-6.879364848E-1
3.211794073E1,-2.069791555E-1,-9.820143700E0,-8.219345808E-1
3.213674933E1,-2.620140910E-1,-9.781859398E0,-9.882357717E-1
3.215555792E1,-2.249253243E-1,-9.729216576E0,-9.439685345E-1
3.217436651E1,-1.722832322E-1,-9.751948357E0,-7.046862841E-1
3.219317511E1,-1.256231815E-1,-9.722038269E0,-4.654040039E-1
3.221198370E1,-7.178467698E-3,-9.789037704E0,-4.713860750E-1
3.223079230E1,1.280160099E-1,-9.734002113E0,-6.125625968E-1
3.224960089E1,9.451649338E-2,-9.706484795E0,-7.824530005E-1
3.226840948E1,-3.469592705E-2,-9.713663101E0,-8.147560954E-1
3.228721808E1,-1.136590764E-1,-9.716055870E0,-7.788637877E-1
3.230602667E1,-1.064806059E-1,-9.754341125E0,-7.501499057E-1
3.232483526E1,-1.615155339E-1,-9.793823242E0,-7.178468108E-1
3.234364386E1,-1.543370634E-1,-9.812965393E0,-7.369893789E-1
3.236245245E1,-3.469592705E-2,-9.723235130E0,-9.355936646E-1
3.238126104E1,2.392822690E-2,-9.688538551E0,-1.057627559E0
3.240006964E1,6.939185411E-2,-9.888339996E0,-8.338986635E-1
3.241887823E1,1.698904037E-1,-9.981659889E0,-5.168496966E-1
3.243768677E1,3.182454109E-1,-9.632308006E0,-4.019941986E-1
3.245649542E1,4.019941986E-1,-9.463613510E0,-9.571290612E-1
3.247530396E1,4.199403822E-1,-9.674181938E0,-1.421336651E0
3.249411256E1,1.914258152E-1,-9.954142570E0,-7.884350419E-1
3.251292115E1,-2.775674164E-1,-9.902696609E0,8.015955985E-2
3.253172974E1,-5.491527915E-1,-9.939785004E0,2.297109663E-1
3.255053834E1,-5.670989752E-1,-1.001994514E1,-4.163511395E-1
3.256934693E1,-6.652047038E-1,-9.962516785E0,-1.095912814E0
3.258815552E1,-8.530412912E-1,-9.698110580E0,-1.507478237E0
3.260696412E1,-8.865407705E-1,-9.547362328E0,-1.277767301E0
3.262577271E1,-7.070791125E-1,-9.690931320E0,-5.563312769E-1
3.264458130E1,-2.368894368E-1,-9.943374634E0,1.555334684E-2
3.266338990E1,1.160518974E-1,-1.009412193E1,2.919243574E-1
3.268219849E1,4.881358147E-1,-9.651450157E0,2.404786795E-1
3.270100709E1,8.829515576E-1,-9.407382011E0,-3.074777126E-1
3.271981568E1,1.020538807E0,-9.473184586E0,-1.021735311E0
3.273862427E1,8.997012973E-1,-9.647860527E0,-1.526620865E0
3.275743287E1,6.484549642E-1,-9.826126099E0,-1.631905079E0
3.277624146E1,1.399801224E-1,-9.937392235E0,-1.234696507E0
3.279505006E1,-3.720839322E-1,-9.726823807E0,-3.649054468E-1
3.281385865E1,-5.659025311E-1,-9.878767967E0,2.512463741E-2
3.283266724E1,-3.146561682E-1,-9.791430473E0,1.543370634E-1
3.285147584E1,2.153540403E-2,-9.656235695E0,4.187439755E-2
3.287028438E1,1.878365725E-1,-9.644271851E0,-1.519442350E-1
3.288909297E1,2.644068897E-1,-9.647860527E0,-2.536391914E-1
3.290790157E1,3.613162339E-1,-9.681360245E0,-3.948157430E-1
3.292671016E1,1.639083475E-1,-9.722038269E0,-5.276173949E-1
3.294551875E1,-1.208375469E-1,-9.643074989E0,-7.369893789E-1
3.296432735E1,-3.134597540E-1,-9.556933403E0,-9.738788009E-1
3.298313594E1,-2.895315289E-1,-9.500701904E0,-9.834501147E-1
3.300194454E1,-1.579262912E-1,-9.596415520E0,-8.303094506E-1
3.302075313E1,-4.785645381E-2,-9.622735977E0,-7.453642488E-1
3.303956172E1,7.537391037E-2,-9.615557671E0,-8.279166222E-1
3.305837032E1,2.117647976E-1,-9.530612946E0,-1.010967612E0
3.307717891E1,3.361915946E-1,-9.558130264E0,-1.079162955E0
3.309598750E1,2.895315289E-1,-9.748359680E0,-1.024128079E0
3.311479610E1,-1.136590764E-1,-9.833304405E0,-8.733802438E-1
3.313360469E1,-7.645068169E-1,-9.781859398E0,-8.279166222E-1
3.315241328E1,-1.201196909E0,-9.716055870E0,-9.834501147E-1
3.317122188E1,-1.341177106E0,-9.645467758E0,-1.207179070E0
3.319003042E1,-1.087537885E0,-9.566504478E0,-1.214357495E0
3.320883901E1,-7.824530005E-1,-9.570094109E0,-9.332008362E-1
3.322764761E1,-4.067798555E-1,-9.568898201E0,-6.352944374E-1
3.324645620E1,-5.144568533E-2,-9.711270332E0,-4.905286431E-1
3.326526480E1,-7.058826834E-2,-9.793823242E0,-6.532405615E-1
3.328407339E1,-3.888336718E-1,-9.885947227E0,-1.025324464E0
3.330288198E1,-5.551348329E-1,-9.901499748E0,-1.290927768E0
3.332169058E1,-7.728816867E-1,-9.627521515E0,-1.100698471E0
3.334049917E1,-7.884350419E-1,-9.607182503E0,-7.932206988E-1
3.335930776E1,-7.106683254E-1,-9.531808853E0,-3.457628787E-1
3.337811636E1,-3.194418252E-1,-9.320044518E0,-3.302095234E-1
3.339692495E1,2.991028316E-2,-9.299705505E0,-7.178468108E-1
3.341573354E1,3.326023519E-1,-9.793823242E0,-1.221535921E0
3.343454214E1,4.390829504E-1,-1.004387283E1,-1.347159147E0
3.345335073E1,-6.101697683E-2,-9.879964828E0,-1.101894855E0
3.347215927E1,-6.496513486E-1,-9.650253296E0,-8.506484628E-1
3.349096787E1,-1.003789067E0,-9.658628464E0,-7.238288522E-1
3.350977646E1,-1.319641709E0,-9.684949875E0,-5.718846321E-1
3.352858506E1,-1.497906923E0,-9.680164337E0,-5.443671346E-1
3.354739365E1,-1.338784218E0,-9.644271851E0,-6.125625968E-1
3.356620224E1,-1.040877819E0,-9.710074425E0,-7.417750359E-1
3.358501084E1,-8.015955687E-1,-9.714859962E0,-7.106683254E-1
3.360381943E1,-5.934200287E-1,-9.655039787E0,-6.400800347E-1
3.362262802E1,-3.481557071E-1,-9.607182503E0,-5.479564071E-1
3.364143662E1,-2.069791555E-1,-9.656235695E0,-4.450650215E-1
3.366024521E1,-2.524427772E-1,-9.677771568E0,-3.792623878E-1
3.367905380E1,-3.661018610E-1,-9.739984512E0,-4.857429862E-1
3.369786240E1,-6.125625968E-1,-9.732806206E0,-6.759724021E-1
3.371667099E1,-8.327022791E-1,-9.713663101E0,-8.255237937E-1
3.373547959E1,-9.738788009E-1,-9.682557106E0,-9.762716293E-1
3.375428818E1,-9.272187948E-1,-9.687342644E0,-1.100698471E0
3.377309672E1,-7.621139884E-1,-9.712467194E0,-9.080761671E-1
3.379190532E1,-5.371887088E-1,-9.726823807E0,-5.850451589E-1
3.381071391E1,-3.290131092E-1,-9.766305923E0,-3.804588020E-1
3.382952250E1,-3.804588020E-1,-9.751948357E0,-4.414757788E-1
3.384833110E1,-4.067798555E-1,-9.744770050E0,-7.010970116E-1
3.386713969E1,-3.026920557E-1,-9.683753014E0,-8.697910309E-1
3.388594829E1,-2.273181528E-1,-9.702896118E0,-8.673982024E-1
3.390475688E1,-3.457628787E-1,-9.702896118E0,-5.754738450E-1
3.392356547E1,-4.701896608E-1,-9.682557106E0,-3.672982752E-1
3.394237407E1,-6.101697683E-1,-9.695717812E0,-3.601198196E-1
3.396118266E1,-7.848458290E-1,-9.729216576E0,-4.199403822E-1
3.397999125E1,-8.877372146E-1,-9.750752449E0,-5.335994363E-1
3.399879985E1,-8.255237937E-1,-9.713663101E0,-5.874379873E-1
3.401760839E1,-7.118647099E-1,-9.668199539E0,-5.120640397E-1
3.403641698E1,-5.551348329E-1,-9.698110580E0,-5.000999570E-1
3.405522558E1,-5.108676553E-1,-9.793823242E0,-5.551348329E-1
3.407403417E1,-5.407779217E-1,-9.817750931E0,-6.173482537E-1
3.409284276E1,-5.850451589E-1,-9.756733894E0,-6.735795736E-1
3.411165136E1,-5.503492355E-1,-9.723235130E0,-6.939185858E-1
3.413045995E1,-5.312066078E-1,-9.708877563E0,-6.568298340E-1
3.414926855E1,-5.479564071E-1,-9.707681656E0,-6.149554253E-1
3.416807714E1,-6.257231236E-1,-9.640682220E0,-5.060819983E-1
3.418688573E1,-6.903293133E-1,-9.635896683E0,-4.079762697E-1
3.420569433E1,-7.046862841E-1,-9.778269768E0,-4.462614357E-1
3.422450292E1,-6.460621357E-1,-9.792626381E0,-4.642075896E-1
3.424331151E1,-6.281159520E-1,-9.674181938E0,-4.558327198E-1
3.426212006E1,-6.017948985E-1,-9.605986595E0,-4.570291340E-1
3.428092865E1,-5.659025311E-1,-9.659825325E0,-4.570291340E-1
3.429973724E1,-5.347958803E-1,-9.814162254E0,-5.635097623E-1
3.431854584E1,-4.462614357E-1,-9.747162819E0,-6.197410822E-1
3.433735443E1,-4.821537733E-1,-9.625128746E0,-4.474578202E-1
3.435616302E1,-5.766702294E-1,-9.635896683E0,-2.919243574E-1
3.437497162E1,-6.592226624E-1,-9.694520950E0,-2.979064286E-1
3.439378021E1,-6.664010882E-1,-9.669396400E0,-5.300102234E-1
3.441258880E1,-6.113662124E-1,-9.698110580E0,-8.015955687E-1
3.443139740E1,-5.084748268E-1,-9.718449593E0,-9.224331379E-1
3.445020599E1,-4.977070987E-1,-9.705288887E0,-7.130611539E-1
3.446901459E1,-5.347958803E-1,-9.735198975E0,-4.462614357E-1
3.448782318E1,-6.017948985E-1,-9.755537987E0,-4.283152521E-1
3.450663172E1,-6.161518097E-1,-9.713663101E0,-5.934200287E-1
3.452544032E1,-6.376872063E-1,-9.693324089E0,-7.932206988E-1
3.454424891E1,-6.496513486E-1,-9.725627899E0,-8.662018180E-1
3.456305750E1,-6.077769399E-1,-9.751948357E0,-8.147560954E-1
3.458186610E1,-5.144568682E-1,-9.728020668E0,-7.585247755E-1
3.460067469E1,-5.419743061E-1,-9.734002113E0,-7.022934556E-1
3.461948328E1,-6.053841114E-1,-9.716055870E0,-6.209374666E-1
3.463829188E1,-6.568298340E-1,-9.687342644E0,-5.934200287E-1
3.465710047E1,-6.616154313E-1,-9.734002113E0,-5.814558864E-1
3.467590907E1,-5.994020700E-1,-9.736394882E0,-6.580262184E-1
3.469471761E1,-5.718846321E-1,-9.704092026E0,-6.496513486E-1
3.471352620E1,-6.149554253E-1,-9.702896118E0,-6.317051649E-1
3.473233480E1,-5.778666735E-1,-9.692128181E0,-6.329016089E-1
3.475114339E1,-5.694918036E-1,-9.700503349E0,-6.065805554E-1
3.476995198E1,-5.850451589E-1,-9.714859962E0,-5.742774606E-1
3.478876058E1,-6.257231236E-1,-9.670592308E0,-5.347958803E-1
3.480756917E1,-5.814558864E-1,-9.662218094E0,-5.467599630E-1
3.482637776E1,-5.563312769E-1,-9.696913719E0,-5.850451589E-1
3.484518636E1,-5.826523304E-1,-9.728020668E0,-6.173482537E-1
3.486399495E1,-5.802595019E-1,-9.718449593E0,-6.580262184E-1
3.488280354E1,-5.527420044E-1,-9.705288887E0,-7.142575383E-1
3.490161209E1,-5.324030519E-1,-9.717252731E0,-7.465606928E-1
3.492042068E1,-5.060819983E-1,-9.693324089E0,-7.298108935E-1
3.493922927E1,-5.192425251E-1,-9.677771568E0,-7.178468108E-1
3.495803787E1,-5.144568682E-1,-9.705288887E0,-7.836494446E-1
3.497684646E1,-4.510470629E-1,-9.710074425E0,-8.626125455E-1
3.499565506E1,-3.912265003E-1,-9.668199539E0,-9.008977413E-1
3.501446365E1,-4.079762697E-1,-9.711270332E0,-8.793623447E-1
3.503327224E1,-4.749752879E-1,-9.700503349E0,-7.896314859E-1
3.505208084E1,-5.144568682E-1,-9.643074989E0,-6.867401004E-1
3.507088943E1,-5.024927258E-1,-9.730413437E0,-7.166503668E-1
3.508969797E1,-5.108676553E-1,-9.737591743E0,-7.908278704E-1
3.510850657E1,-5.288137794E-1,-9.650253296E0,-7.752745152E-1
3.512731516E1,-5.419743061E-1,-9.699306488E0,-7.034898400E-1
3.514612375E1,-6.508477330E-1,-9.699306488E0,-5.994020700E-1
3.516493235E1,-7.226324677E-1,-9.713663101E0,-6.077769399E-1
3.518374094E1,-6.735795736E-1,-9.684949875E0,-6.939185858E-1
3.520254954E1,-6.161518097E-1,-9.663414001E0,-7.489534616E-1
3.522135813E1,-5.515456200E-1,-9.716055870E0,-7.118647099E-1
3.524016672E1,-5.419743061E-1,-9.700503349E0,-6.568298340E-1
3.525897526E1,-5.252245665E-1,-9.729216576E0,-6.903293133E-1
3.527778386E1,-5.204389095E-1,-9.744770050E0,-7.537391186E-1
3.529659245E1,-5.467599630E-1,-9.659825325E0,-7.058826685E-1
3.531540104E1,-6.209374666E-1,-9.661021233E0,-6.161518097E-1
3.533420964E1,-7.369893789E-1,-9.641879082E0,-6.005984545E-1
3.535301823E1,-7.106683254E-1,-9.645467758E0,-6.771687865E-1
3.537182683E1,-5.922235847E-1,-9.688538551E0,-7.657032609E-1
3.539063542E1,-5.120640397E-1,-9.712467194E0,-7.956135273E-1
3.540944396E1,-4.845465720E-1,-9.699306488E0,-7.740781307E-1
3.542825261E1,-5.048855543E-1,-9.701699257E0,-7.453642488E-1
3.544706115E1,-5.886343718E-1,-9.707681656E0,-7.250252366E-1
3.546586974E1,-6.329016089E-1,-9.701699257E0,-7.238288522E-1
3.548467834E1,-6.281159520E-1,-9.699306488E0,-7.142575383E-1
3.550348693E1,-5.300102234E-1,-9.682557106E0,-7.381857634E-1
3.552229552E1,-4.354937077E-1,-9.732806206E0,-8.697910309E-1
3.554110412E1,-4.785645306E-1,-9.739984512E0,-8.781659007E-1
3.555991271E1,-5.395814776E-1,-9.659825325E0,-6.807580590E-1
3.557872125E1,-5.527420044E-1,-9.656235695E0,-5.886343718E-1
3.559752985E1,-5.886343718E-1,-9.735198975E0,-6.771687865E-1
3.561633844E1,-6.137589812E-1,-9.717252731E0,-7.561319470E-1
3.563514704E1,-6.951149702E-1,-9.693324089E0,-7.513462901E-1
3.565395563E1,-6.843472719E-1,-9.688538551E0,-7.429714203E-1
3.567276422E1,-6.101697683E-1,-9.695717812E0,-6.855437160E-1
3.569157282E1,-6.065805554E-1,-9.723235130E0,-6.245267391E-1
3.571038141E1,-6.364908218E-1,-9.723235130E0,-5.754738450E-1
3.572918995E1,-6.041877270E-1,-9.716055870E0,-6.448656917E-1
3.574799854E1,-5.048855543E-1,-9.682557106E0,-7.106683254E-1
3.576680714E1,-4.965106845E-1,-9.712467194E0,-7.405785918E-1
3.578561573E1,-5.443671346E-1,-9.720842361E0,-7.573283911E-1
3.580442433E1,-5.635097623E-1,-9.675378799E0,-7.381857634E-1
3.582323292E1,-5.144568682E-1,-9.686145782E0,-7.369893789E-1
3.584204151E1,-4.737788737E-1,-9.695717812E0,-7.585247755E-1
3.586085011E1,-4.833501875E-1,-9.689735413E0,-7.250252366E-1
3.587965870E1,-5.072783828E-1,-9.707681656E0,-7.357929349E-1
3.589846724E1,-5.647061467E-1,-9.736394882E0,-7.082754970E-1
3.591727584E1,-5.790630579E-1,-9.702896118E0,-6.807580590E-1
3.593608443E1,-5.539384484E-1,-9.653842926E0,-6.699903607E-1
3.595489302E1,-5.898307562E-1,-9.682557106E0,-6.783652306E-1
3.597370162E1,-5.898307562E-1,-9.748359680E0,-6.568298340E-1
3.599251021E1,-6.113662124E-1,-9.729216576E0,-6.305087805E-1
3.601131880E1,-5.970092416E-1,-9.711270332E0,-6.484549642E-1
3.603012735E1,-5.431707501E-1,-9.694520950E0,-6.664010882E-1
3.604893594E1,-5.670989752E-1,-9.678967476E0,-6.699903607E-1
3.606774454E1,-6.424728632E-1,-9.720842361E0,-6.352944374E-1
3.608655313E1,-6.879364848E-1,-9.737591743E0,-6.376872063E-1
3.610536172E1,-6.759724021E-1,-9.684949875E0,-7.286145091E-1
3.612417032E1,-5.850451589E-1,-9.689735413E0,-7.992027402E-1
3.614297891E1,-4.965106845E-1,-9.687342644E0,-8.410771489E-1
3.616178745E1,-4.247260094E-1,-9.687342644E0,-7.704889178E-1
3.618059604E1,-3.816552162E-1,-9.686145782E0,-6.879364848E-1
3.619940464E1,-3.182454109E-1,-9.705288887E0,-6.460621357E-1
3.621821323E1,-3.589234054E-1,-9.690931320E0,-6.891329288E-1
3.623702183E1,-4.785645306E-1,-9.683753014E0,-7.908278704E-1
3.625583042E1,-5.491527915E-1,-9.704092026E0,-8.494520187E-1
3.627463901E1,-5.419743061E-1,-9.705288887E0,-7.633104324E-1
3.629344756E1,-5.539384484E-1,-9.678967476E0,-6.173482537E-1
3.631225615E1,-5.084748268E-1,-9.690931320E0,-6.137589812E-1
3.633106474E1,-4.917250574E-1,-9.711270332E0,-6.664010882E-1
3.634987334E1,-5.060819983E-1,-9.722038269E0,-7.298108935E-1
3.636868193E1,-5.276173949E-1,-9.726823807E0,-7.752745152E-1
3.638749052E1,-4.953143001E-1,-9.693324089E0,-7.668996453E-1
3.640629912E1,-5.240281820E-1,-9.696913719E0,-6.652047038E-1
3.642510766E1,-6.185446382E-1,-9.708877563E0,-5.886343718E-1
3.644391625E1,-7.118647099E-1,-9.708877563E0,-5.694918036E-1
3.646272485E1,-6.939185858E-1,-9.702896118E0,-6.484549642E-1
3.648153344E1,-6.089733839E-1,-9.680164337E0,-7.932206988E-1
3.650034204E1,-5.288137794E-1,-9.658628464E0,-7.872386575E-1
3.651915063E1,-4.307080805E-1,-9.717252731E0,-6.364908218E-1
3.653795917E1,-4.606183469E-1,-9.734002113E0,-5.324030519E-1
3.655676776E1,-5.515456200E-1,-9.699306488E0,-5.862415433E-1
3.657557636E1,-6.532405615E-1,-9.698110580E0,-7.094719410E-1
3.659438495E1,-6.185446382E-1,-9.675378799E0,-7.800601721E-1
3.661319354E1,-5.252245665E-1,-9.701699257E0,-7.597211599E-1
3.663200214E1,-4.486542344E-1,-9.726823807E0,-6.879364848E-1
3.665081068E1,-4.821537733E-1,-9.699306488E0,-6.053841114E-1
3.666961927E1,-5.970092416E-1,-9.687342644E0,-6.005984545E-1
3.668842787E1,-5.802595019E-1,-9.741181374E0,-6.975077987E-1
3.670723646E1,-5.587241054E-1,-9.705288887E0,-7.908278704E-1
3.672604506E1,-5.551348329E-1,-9.699306488E0,-7.549355626E-1
3.674485365E1,-6.101697683E-1,-9.734002113E0,-5.706881881E-1
3.676366219E1,-6.484549642E-1,-9.718449593E0,-4.845465720E-1
3.678247078E1,-6.329016089E-1,-9.698110580E0,-5.874379873E-1
3.680127938E1,-5.132604837E-1,-9.718449593E0,-7.429714203E-1
3.682008797E1,-4.127618968E-1,-9.722038269E0,-7.824530005E-1
3.683889657E1,-3.900300860E-1,-9.714859962E0,-7.022934556E-1
3.685770516E1,-4.510470629E-1,-9.732806206E0,-5.970092416E-1
3.687651375E1,-5.850451589E-1,-9.710074425E0,-5.096712112E-1
3.689532230E1,-6.340979934E-1,-9.668199539E0,-6.065805554E-1
3.691413089E1,-5.874379873E-1,-9.704092026E0,-7.166503668E-1
3.693293948E1,-5.575276613E-1,-9.699306488E0,-7.824530005E-1
3.695174808E1,-5.347958803E-1,-9.726823807E0,-7.298108935E-1
3.697055667E1,-5.515456200E-1,-9.726823807E0,-6.436693072E-1
3.698936521E1,-5.503492355E-1,-9.695717812E0,-6.460621357E-1
3.700817381E1,-5.264210105E-1,-9.701699257E0,-6.975077987E-1
3.702698240E1,-4.845465720E-1,-9.705288887E0,-7.262216806E-1
3.704579099E1,-4.426721931E-1,-9.704092026E0,-7.058826685E-1
3.706459959E1,-4.654040039E-1,-9.693324089E0,-6.855437160E-1
3.708340818E1,-5.084748268E-1,-9.674181938E0,-6.460621357E-1
3.710221672E1,-5.491527915E-1,-9.716055870E0,-6.568298340E-1
