"Time (s)","Gyroscope x (rad/s)","Gyroscope y (rad/s)","Gyroscope z (rad/s)"
8.436583700E-2,3.609343767E-1,-7.738671303E-1,1.153203249E0
1.031744820E-1,3.734567463E-1,-1.260101557E0,1.391433716E0
1.219831800E-1,3.407764137E-1,-1.674561381E0,1.403650641E0
1.407918260E-1,2.167744190E-1,-1.567968607E0,1.267431736E0
1.596005240E-1,9.521581978E-2,-1.459237695E0,1.270180464E0
1.784091700E-1,-2.634278871E-2,-1.533455729E0,1.330348969E0
1.972178680E-1,-4.802786559E-2,-1.640659332E0,1.405788660E0
2.160265140E-1,1.205659807E-1,-1.377384186E0,1.701744080E0
2.348352120E-1,2.528144121E-1,-7.631772757E-1,2.005335093E0
2.536438570E-1,2.925194800E-1,-3.807105422E-1,2.117425680E0
2.724525030E-1,2.005869746E-1,-6.001574174E-2,1.903934598E0
2.912612010E-1,4.390464723E-2,-2.206685692E-1,1.528568864E0
3.100698470E-1,6.894938648E-2,-8.031877875E-1,1.435109258E0
3.288785450E-1,3.795652092E-1,-1.448547959E0,1.792454958E0
3.476871910E-1,9.488748312E-1,-1.934171438E0,2.298007488E0
3.664958890E-1,1.564608932E0,-2.359015703E0,2.665126562E0
3.853045350E-1,1.890495896E0,-2.776529789E0,2.804705143E0
4.041131800E-1,1.806198955E0,-2.881595612E0,2.828833580E0
4.229218780E-1,1.435720086E0,-2.588083506E0,2.810202837E0
4.417305240E-1,1.147705674E0,-2.494318485E0,2.962303877E0
4.605392220E-1,1.124188066E0,-2.510811329E0,3.218248844E0
4.793478680E-1,1.316604853E0,-2.711169243E0,3.275668383E0
4.981565140E-1,1.556667924E0,-2.651306152E0,2.945199966E0
5.169652120E-1,1.709379673E0,-2.560900688E0,2.550287247E0
5.357738570E-1,1.865451217E0,-2.640921831E0,2.397575378E0
5.545825550E-1,2.103757858E0,-2.875487089E0,2.278154850E0
5.733912010E-1,2.296785593E0,-3.063933611E0,1.929590106E0
5.921998470E-1,2.146211863E0,-2.903891563E0,1.496804833E0
6.110085450E-1,1.734729886E0,-2.475382090E0,1.507800102E0
6.298171910E-1,1.419532657E0,-2.230737925E0,1.702965856E0
6.486258890E-1,1.134572387E0,-2.383449554E0,1.769853592E0
6.674345350E-1,8.129613400E-1,-2.422849178E0,1.841933608E0
6.862431800E-1,4.977641702E-1,-2.903280735E0,1.712739348E0
7.050518780E-1,4.470638335E-1,-2.794549942E0,1.112276554E0
7.238605240E-1,6.382590532E-1,-2.858994246E0,1.445799112E0
7.426691700E-1,1.276899815E0,-2.663523197E0,2.442472696E0
7.614778680E-1,1.713655591E0,-2.610990286E0,3.068591118E0
7.802865140E-1,1.590875387E0,-2.613128185E0,3.653172016E0
7.990952120E-1,1.794287443E0,-2.435371637E0,4.665346146E0
8.179038570E-1,2.232646704E0,-2.118036509E0,5.037733555E0
8.367125030E-1,8.703809977E-1,-9.207758904E-1,4.213624477E0
8.555212010E-1,-2.630461156E-1,-1.337068319E0,3.499543905E0
8.743298470E-1,-6.757497787E-1,-2.245703697E0,3.122040272E0
8.931385450E-1,-5.003602505E-1,-2.593581200E0,2.821503401E0
9.119471910E-1,-1.054475084E-1,-1.743587136E0,2.323357582E0
9.307558370E-1,1.288124174E-1,-2.151709497E-1,1.533150315E0
9.495645350E-1,-5.229616165E-1,3.355078697E-1,8.712972403E-1
9.683731800E-1,-1.932262540E0,2.628170252E-1,8.318976164E-1
9.871818260E-1,-2.418802500E0,6.500942111E-1,1.576825857E0
1.005990524E0,-2.051988602E0,1.043479800E0,2.612899065E0
1.024799170E0,-1.301257372E0,1.461604834E0,3.478469610E0
1.043607816E0,-6.210789680E-1,1.310420036E0,3.948211193E0
1.062416514E0,-3.412345648E-1,4.509579837E-1,4.104588032E0
1.081225160E0,-4.924955964E-2,-1.110214889E-1,3.916141748E0
1.100033805E0,3.377221823E-1,-3.405473381E-2,3.498933077E0
1.118842503E0,5.649573803E-1,3.461976945E-1,3.031940460E0
1.137651149E0,6.894938648E-2,6.189410090E-1,2.631835461E0
1.156459795E0,-5.722111464E-1,5.871769190E-1,2.085661650E0
1.175268493E0,-8.987090588E-1,1.565296054E-1,1.380743861E0
1.194077139E0,-2.221193314E-1,-4.396573007E-1,1.010264993E0
1.212885837E0,4.217136800E-1,-1.114796288E-2,7.207233906E-1
1.231694482E0,5.493807793E-1,7.875348330E-1,2.265479714E-1
1.250503128E0,5.234197378E-1,1.097234368E0,-2.248681486E-1
1.269311774E0,4.605024755E-1,8.290724158E-1,-5.010474920E-1
1.288120472E0,3.114557564E-1,3.483356535E-1,-5.752654076E-1
1.306929118E0,9.949174523E-2,-6.887302548E-2,-4.787515402E-1
1.325737764E0,-6.574243307E-2,-3.153499067E-1,-3.158843815E-1
1.344546462E0,-6.849125028E-2,-4.289674759E-1,-1.472905427E-1
1.363355107E0,6.642963737E-3,-3.700207174E-1,-7.185091078E-2
1.382163753E0,4.665346071E-2,-1.458397806E-1,-7.062921673E-2
1.400972451E0,6.192464009E-2,8.261708915E-2,-6.788039953E-2
1.419781097E0,8.941277117E-2,1.461452097E-1,-6.024480984E-2
1.438589743E0,6.345175952E-2,-1.053711493E-2,-7.429429889E-2
1.457398441E0,-2.359397523E-2,-2.704526186E-1,-8.590039611E-2
1.476207087E0,-9.872818738E-2,-3.733803928E-1,-8.651123941E-2
1.495015732E0,-6.177192926E-2,-3.590254784E-1,-9.445225447E-2
1.513824430E0,5.726693198E-3,-2.188360244E-1,-1.011715755E-1
1.532633076E0,3.565821052E-2,-3.710897267E-2,-8.131904155E-2
1.551441722E0,4.756972939E-2,5.421269313E-2,-4.650074616E-2
1.570250368E0,6.284090877E-2,3.710897267E-2,-2.023431472E-2
1.589059066E0,5.062396824E-2,1.175880991E-2,-1.534753758E-2
1.607867712E0,3.718532622E-2,-7.482878864E-3,-3.153498843E-2
1.626676357E0,5.764871091E-2,-5.329642445E-2,-5.871769413E-2
1.645485055E0,5.887040496E-2,-9.605573118E-2,-7.643226534E-2
1.664293701E0,5.703786388E-2,-1.220167428E-1,-8.803836256E-2
1.683102347E0,6.803311408E-2,-1.339282542E-1,-9.261971712E-2
1.701910993E0,5.428905040E-2,-1.238492802E-1,-8.987089992E-2
1.720719639E0,1.763821393E-2,-1.003316641E-1,-7.948649675E-2
1.739528337E0,4.199574701E-3,-7.375980914E-2,-5.657972768E-2
1.758336982E0,1.061347127E-2,-9.620844387E-3,-2.267770469E-2
1.777145628E0,2.924431302E-2,7.498150319E-2,7.864658721E-3
1.795954326E0,6.100837141E-2,1.223221645E-1,2.466295846E-2
1.814762972E0,7.841751724E-2,1.189625040E-1,2.710634656E-2
1.833571618E0,6.894938648E-2,7.925742865E-2,1.000262424E-2
1.852380264E0,5.367820337E-2,2.244863659E-2,-1.901262067E-2
1.871188910E0,4.268295318E-2,-4.413371533E-2,-4.253023863E-2
1.889997607E0,3.474193811E-2,-9.727742523E-2,-5.474718660E-2
1.908806253E0,8.170082234E-3,-1.046075895E-1,-6.329904497E-2
1.927614899E0,-8.933641016E-3,-8.506047726E-2,-5.383091420E-2
1.946423545E0,-2.825168660E-3,-5.268557742E-2,-3.245126083E-2
1.965232243E0,-8.322793990E-3,1.572931744E-2,-2.512109280E-2
1.984040889E0,-1.382041909E-2,8.231166750E-2,-3.092414327E-2
2.002849535E0,-4.352286924E-3,9.300149232E-2,-2.939702384E-2
2.021658180E0,-1.198787708E-2,8.353336155E-2,-1.382041909E-2
2.040466878E0,-4.253023863E-2,1.122431830E-1,-5.879404955E-3
2.059275524E0,-4.405735806E-2,1.617218107E-1,-2.214321401E-3
2.078084170E0,5.344913807E-4,1.782146841E-1,1.091889478E-2
2.096892816E0,3.046600707E-2,1.571404636E-1,2.466295846E-2
2.115701514E0,3.871244565E-2,1.308740228E-1,3.199312463E-2
2.134510160E0,5.489989743E-2,1.149920002E-1,3.321481869E-2
2.153318805E0,7.597412914E-2,1.110214889E-1,2.954973653E-2
2.172127451E0,7.719582319E-2,1.146865711E-1,2.649549954E-2
2.190936097E0,6.467345357E-2,1.168245375E-1,2.557922900E-2
2.209744743E0,3.810159862E-2,1.284306347E-1,2.435753495E-2
2.228553441E0,2.252499200E-2,1.253764033E-1,2.008160390E-2
2.247362087E0,5.795413256E-2,8.964183182E-2,1.916533336E-2
2.266170732E0,8.177717775E-2,5.115845799E-2,1.305686031E-2
2.284979378E0,5.764871091E-2,2.947338112E-2,6.948387716E-3
2.303788024E0,3.443651274E-2,2.428117767E-2,3.894151188E-3
2.322596722E0,3.626905754E-2,2.275406010E-2,2.977880416E-3
2.341405368E0,4.543176666E-2,-6.566607859E-3,-4.657710437E-3
2.360214014E0,3.901786730E-2,-5.115845799E-2,-1.656923257E-2
2.379022660E0,2.802261710E-2,-8.261708915E-2,-1.870719716E-2
2.397831305E0,2.221956849E-2,-8.231166750E-2,-2.970244735E-2
2.416639951E0,3.199312463E-2,-6.612421572E-2,-4.436278343E-2
2.435448649E0,4.695888236E-2,-5.390727147E-2,-5.169294775E-2
2.454257295E0,5.306735635E-2,-5.909947306E-2,-4.466820508E-2
2.473065941E0,5.245650932E-2,-8.536590636E-2,-3.581092134E-2
2.491874587E0,4.543176666E-2,-1.018587798E-1,-3.397838026E-2
2.510683232E0,3.229855001E-2,-9.727742523E-2,-1.565296017E-2
2.529491878E0,-1.412584260E-2,-5.726693198E-2,-9.544488043E-3
2.548300576E0,-5.169294775E-2,-8.093725890E-3,-1.534753758E-2
2.567109222E0,-6.238277629E-2,3.802524135E-2,-2.603736520E-2
2.585917868E0,-4.588989913E-2,6.368082762E-2,-3.153498843E-2
2.604726514E0,-1.412584260E-2,5.115845799E-2,-3.917058185E-2
2.623535160E0,2.985516004E-2,2.733541466E-2,-3.336753324E-2
2.642343805E0,7.475243509E-2,-1.175880991E-2,-4.046862945E-3
2.661152451E0,4.879142344E-2,-1.603474095E-2,1.244601328E-2
2.679961149E0,-5.573981442E-3,-1.068982761E-3,1.763821393E-2
2.698769795E0,-4.619532451E-2,1.969982497E-2,3.565821052E-2
2.717578441E0,-9.139802307E-2,5.543438718E-2,4.940227047E-2
2.736387087E0,-8.467870206E-2,8.506047726E-2,3.504735976E-2
2.755195732E0,2.649549954E-2,6.032116711E-2,3.901786730E-2
2.774004378E0,1.727934182E-1,-1.145338640E-2,6.314633787E-2
2.792813024E0,2.347944081E-1,-4.535540938E-2,6.070294604E-2
2.811621670E0,1.990598440E-1,-1.985253533E-3,-5.573981442E-3
2.830430368E0,1.330883503E-1,1.088835225E-1,-8.864920586E-2
2.849239014E0,1.043785289E-1,1.849340051E-1,-1.482068151E-1
2.868047660E0,6.558972597E-2,1.754658818E-1,-1.680593491E-1
2.886856305E0,2.977880416E-3,3.374931216E-2,-1.198024154E-1
2.905664951E0,-4.161396995E-2,-2.252499312E-1,-3.184041381E-2
2.924473597E0,7.864658721E-3,-4.326325655E-1,9.888090193E-2
2.943282243E0,9.888090193E-2,-3.013004065E-1,1.651578248E-1
2.962090889E0,1.391968131E-1,1.293469071E-1,1.144575030E-1
2.980899535E0,1.492757946E-1,5.700731874E-1,3.657447919E-2
2.999708232E0,1.492757946E-1,7.392778993E-1,-3.130592173E-3
3.018516878E0,1.141520813E-1,5.236487985E-1,-2.909160033E-2
3.037325524E0,5.856497958E-2,9.452861547E-2,-6.452073902E-2
3.056134170E0,2.191414498E-2,-2.423536479E-1,-5.657972768E-2
3.074942816E0,-2.825168660E-3,-2.945810854E-1,-8.628217503E-3
3.093751462E0,8.780929260E-3,-1.217113137E-1,3.077143058E-2
3.112560107E0,5.551074445E-2,1.131594554E-1,5.520532280E-2
3.131368753E0,8.391514421E-2,2.854183912E-1,5.520532280E-2
3.150177399E0,8.147175610E-2,3.318427801E-1,3.749075159E-2
3.168986045E0,7.505785674E-2,2.478512824E-1,1.152974181E-2
3.187794691E0,6.589514762E-2,1.079672500E-1,-1.809635013E-2
3.206603337E0,3.382566571E-2,-1.603474095E-2,-2.298312820E-2
3.225412035E0,-2.084516361E-2,-8.475505561E-2,-2.206685767E-2
3.244220680E0,-6.665870547E-2,-7.559234649E-2,-1.718007959E-2
3.263029326E0,-6.055023521E-2,-1.206423342E-2,2.672456671E-3
3.281837972E0,-1.870719716E-2,6.276455522E-2,2.221956849E-2
3.300646618E0,3.046600707E-2,1.027750522E-1,3.443651274E-2
3.319455264E0,8.025006205E-2,9.972081333E-2,4.329380020E-2
3.338263910E0,1.025459841E-1,9.147437662E-2,3.352024406E-2
3.357072555E0,8.483141661E-2,9.666658193E-2,4.810422193E-3
3.375881201E0,4.359922186E-2,8.047912270E-2,-9.544488043E-3
3.394689847E0,4.810422193E-3,2.122694254E-2,-1.137703005E-2
3.413498493E0,-6.490251981E-3,-3.894151375E-2,-8.933641016E-3
3.432307139E0,1.183516532E-2,-5.971032009E-2,4.504998680E-3
3.451115785E0,3.901786730E-2,-3.497100621E-2,1.488940232E-2
3.469924430E0,6.253548712E-2,2.275406010E-2,1.947075687E-2
3.488733076E0,7.230904698E-2,8.047912270E-2,1.824906096E-2
3.507541774E0,5.367820337E-2,1.021642014E-1,1.397313084E-2
3.526350420E0,2.252499200E-2,6.490252167E-2,-9.926267667E-4
3.545159014E0,6.337540224E-3,-9.009997360E-3,-8.933641016E-3
3.563967712E0,1.756185899E-3,-5.573981255E-2,-9.544488043E-3
3.582776357E0,-2.825168660E-3,-4.779879749E-2,-1.259872504E-2
3.601585003E0,2.290677221E-4,-1.145338640E-2,-8.933641016E-3
3.620393649E0,-2.825168660E-3,2.611372061E-2,-7.406522986E-3
3.639202295E0,-7.711946499E-3,4.107947648E-2,-8.628217503E-3
3.658010941E0,3.588727675E-3,1.664558798E-2,-9.239064530E-3
3.676819587E0,1.152974181E-2,-2.825168520E-2,-2.214321401E-3
3.695628232E0,3.588727675E-3,-5.176930502E-2,3.283303929E-3
3.714436878E0,-3.436015919E-3,-3.802524135E-2,-5.268557463E-3
3.733245524E0,5.726693198E-3,-6.261184346E-3,8.399150101E-4
3.752054170E0,1.030804776E-2,2.214321308E-2,1.427855436E-2
3.770862816E0,6.337540224E-3,3.802524135E-2,1.305686031E-2
3.789671462E0,1.702736691E-2,4.169032723E-2,1.152974181E-2
3.808480107E0,3.504735976E-2,3.222219273E-2,4.810422193E-3
3.827288753E0,4.146125913E-2,2.122694254E-2,1.000262424E-2
3.846097399E0,3.382566571E-2,1.908897609E-2,1.885990985E-2
3.864906045E0,1.244601328E-2,2.122694254E-2,1.091889478E-2
3.883714691E0,-1.137703005E-2,3.206948051E-3,-5.573981442E-3
3.902523337E0,-2.389939874E-2,-4.046862945E-2,-5.573981442E-3
3.921331982E0,-2.725905925E-2,-7.253811508E-2,-9.544488043E-3
3.940140628E0,-3.184041381E-2,-6.978929788E-2,-1.290414855E-2
3.958949274E0,-3.275668249E-2,-5.054761097E-2,-8.017370477E-3
3.977757920E0,-2.573194169E-2,-3.558185324E-2,-4.046862945E-3
3.996566566E0,-1.656923257E-2,-3.069507517E-2,4.199574701E-3
4.015375212E0,-1.412584260E-2,-2.977880463E-2,9.391776286E-3
4.034183857E0,-1.565296017E-2,-2.580829710E-2,1.244601328E-2
4.052992503E0,-1.443126611E-2,-2.153236605E-2,1.244601328E-2
4.071801149E0,-9.849912487E-3,-1.420219894E-2,8.170082234E-3
4.090609795E0,-3.130592173E-3,-4.428642802E-3,1.427855436E-2
4.109418441E0,-4.352286924E-3,7.177455351E-3,1.702736691E-2
4.128227087E0,-1.015533600E-2,1.298050396E-2,1.763821393E-2
4.147035732E0,-8.933641016E-3,2.000524849E-2,1.733279042E-2
4.165844378E0,-6.184828468E-3,4.321744293E-2,1.702736691E-2
4.184653024E0,-1.603474026E-3,7.864658535E-2,2.863346599E-2
4.203461670E0,-3.741439432E-3,9.391776472E-2,3.565821052E-2
4.222270316E0,-1.656923257E-2,7.375980914E-2,3.779617324E-2
4.241078962E0,-3.061871976E-2,3.344388679E-2,3.382566571E-2
4.259887607E0,-4.527905211E-2,1.679830020E-3,1.672194339E-2
4.278696253E0,-6.024480984E-2,-1.985253533E-3,-2.214321401E-3
4.297504899E0,-5.932854116E-2,-1.374406274E-3,-1.382041909E-2
4.316313545E0,-4.344651103E-2,-2.031067200E-2,-1.901262067E-2
4.335122191E0,-1.290414855E-2,-5.360184610E-2,-1.259872504E-2
4.353930837E0,1.214058883E-2,-6.001574174E-2,9.086352773E-3
4.372739482E0,-6.872031372E-4,-1.878355257E-2,1.458397787E-2
4.391548128E0,-2.176143415E-2,3.161134571E-2,1.183516532E-2
4.410356774E0,-2.023431472E-2,3.527642787E-2,1.916533336E-2
4.429165420E0,-1.015533600E-2,-2.901524538E-3,2.008160390E-2
4.447974066E0,1.450762269E-3,-3.894151375E-2,2.038702741E-2
4.466782712E0,2.008160390E-2,-3.588727489E-2,2.130329795E-2
4.485591305E0,2.649549954E-2,-6.261184346E-3,1.183516532E-2
4.504399951E0,2.313583903E-2,1.847812906E-2,-2.825168660E-3
4.523208597E0,1.611109637E-2,1.206423342E-2,-8.628217503E-3
4.542017243E0,2.672456671E-3,-2.000524849E-2,-1.107160654E-2
4.560825889E0,5.344913807E-4,-4.688252881E-2,-2.214321401E-3
4.579634535E0,1.794363745E-2,-4.077405483E-2,6.032116711E-3
4.598443180E0,3.229855001E-2,7.635590737E-4,1.336228382E-2
4.617251826E0,3.413109109E-2,3.833066672E-2,1.427855436E-2
4.636060472E0,2.405211143E-2,3.955236077E-2,6.948387716E-3
4.654869118E0,1.152974181E-2,8.704573847E-3,6.948387716E-3
4.673677764E0,4.504998680E-3,-1.878355257E-2,5.726693198E-3
4.692486410E0,9.391776286E-3,-2.733541466E-2,5.115845706E-3
4.711295055E0,2.496838197E-2,-1.725643501E-2,1.183516532E-2
4.730103701E0,3.626905754E-2,1.985253533E-3,1.275143679E-2
4.748912347E0,3.840702027E-2,1.389677543E-2,5.115845706E-3
4.767720993E0,3.535278514E-2,5.344913341E-3,2.367033157E-3
4.786529639E0,2.283041552E-2,-7.482878864E-3,-7.635590737E-5
4.805338285E0,8.475505747E-3,-1.328592747E-2,-7.635590737E-5
4.824146930E0,2.367033157E-3,-1.084253844E-2,2.977880416E-3
4.842955524E0,-1.298050396E-3,4.123218823E-3,2.672456671E-3
4.861764170E0,-9.239064530E-3,2.886253223E-2,8.780929260E-3
4.880572816E0,-1.259872504E-2,4.321744293E-2,9.391776286E-3
4.899381462E0,-7.406522986E-3,2.183778957E-2,1.061347127E-2
4.918190107E0,2.367033157E-3,-1.725643501E-2,1.183516532E-2
4.936998753E0,2.672456671E-3,-2.367033064E-2,9.697199799E-3
4.955807399E0,-1.298050396E-3,7.482878864E-3,4.199574701E-3
4.974616045E0,-1.908897655E-3,3.222219273E-2,-4.963133950E-3
4.993424691E0,-4.657710437E-3,2.550287358E-2,-2.214321401E-3
5.012233337E0,-6.872031372E-4,2.901524538E-3,5.421269219E-3
5.031041982E0,-7.635590737E-5,-3.512371797E-3,5.115845706E-3
5.049850628E0,-1.046075951E-2,1.298050396E-2,4.199574701E-3
5.068659222E0,-1.076618303E-2,3.283303976E-2,1.000262424E-2
5.087467868E0,-8.322793990E-3,4.138490185E-2,1.244601328E-2
5.106276514E0,-1.351499557E-2,3.222219273E-2,1.458397787E-2
5.125085160E0,-6.795675959E-3,1.634016447E-2,1.427855436E-2
5.143893805E0,-1.603474026E-3,6.872031838E-3,1.336228382E-2
5.162702451E0,-6.184828468E-3,8.704573847E-3,5.726693198E-3
5.181511097E0,-1.351499557E-2,1.481304597E-2,-6.872031372E-4
5.200319743E0,-1.870719716E-2,1.175880991E-2,-6.490251981E-3
5.219128389E0,-2.359397523E-2,1.985253533E-3,-2.214321401E-3
5.237937035E0,-2.237228118E-2,-9.620844387E-3,8.170082234E-3
5.256745628E0,-2.512109280E-2,-1.450762246E-2,6.337540224E-3
5.275554274E0,-3.825430945E-2,-1.267508045E-2,-7.635590737E-5
5.294362920E0,-5.077667907E-2,-4.734066315E-3,-8.322793990E-3
5.313171566E0,-5.077667907E-2,4.734066315E-3,-9.849912487E-3
5.331980212E0,-4.100312293E-2,1.695101149E-2,3.283303929E-3
5.350788857E0,-2.389939874E-2,2.214321308E-2,1.733279042E-2
5.369597503E0,-5.879404955E-3,2.458660305E-2,2.344126441E-2
5.388406149E0,3.283303929E-3,2.947338112E-2,2.130329795E-2
5.407214795E0,-2.519744914E-3,3.222219273E-2,1.397313084E-2
5.426023441E0,-1.504211407E-2,2.672456764E-2,8.780929260E-3
5.444832087E0,-2.359397523E-2,1.908897609E-2,7.253811229E-3
5.463640680E0,-2.328855172E-2,1.878355257E-2,1.183516532E-2
5.482449326E0,-1.687465608E-2,3.405473381E-2,1.427855436E-2
5.501257972E0,-7.711946499E-3,5.573981255E-2,1.427855436E-2
5.520066618E0,-1.908897655E-3,6.459710002E-2,1.214058883E-2
5.538875264E0,-8.628217503E-3,4.932591692E-2,4.810422193E-3
5.557683910E0,-1.992889121E-2,2.031067200E-2,8.399150101E-4
5.576492555E0,-2.756448276E-2,7.635590737E-4,7.864658721E-3
5.595301149E0,-2.817532979E-2,1.068982761E-3,9.697199799E-3
5.614109795E0,-1.901262067E-2,1.389677543E-2,1.091889478E-2
5.632918441E0,-9.239064530E-3,3.191677108E-2,1.305686031E-2
5.651727087E0,-8.017370477E-3,4.291202128E-2,1.183516532E-2
5.670535732E0,-1.137703005E-2,3.527642787E-2,6.032116711E-3
5.689344378E0,-1.504211407E-2,1.450762246E-2,7.864658721E-3
5.708153024E0,-3.031329438E-2,1.985253533E-3,4.199574701E-3
5.726961670E0,-3.917058185E-2,-7.177455351E-3,-2.214321401E-3
5.745770264E0,-2.786990628E-2,-1.236965694E-2,-2.519744914E-3
5.764578910E0,-2.756448276E-2,-4.734066315E-3,1.145338640E-3
5.783387555E0,-3.306210786E-2,1.023169141E-2,2.367033157E-3
5.802196201E0,-2.970244735E-2,2.214321308E-2,4.504998680E-3
5.821004847E0,-2.848075330E-2,1.695101149E-2,7.864658721E-3
5.839813493E0,-3.214583546E-2,4.123218823E-3,4.810422193E-3
5.858622087E0,-2.848075330E-2,-1.679830020E-3,3.894151188E-3
5.877430732E0,-2.420482226E-2,5.039489828E-3,2.367033157E-3
5.896239378E0,-2.084516361E-2,2.336490713E-2,7.559234742E-3
5.915048024E0,-1.809635013E-2,3.863608837E-2,9.086352773E-3
5.933856670E0,-2.023431472E-2,3.924693540E-2,5.115845706E-3
5.952665316E0,-2.725905925E-2,2.947338112E-2,1.756185899E-3
5.971473962E0,-3.428380191E-2,2.244863659E-2,4.810422193E-3
5.990282555E0,-4.253023863E-2,2.733541466E-2,4.504998680E-3
6.009091201E0,-4.772244394E-2,2.977880463E-2,8.780929260E-3
6.027899847E0,-4.436278343E-2,3.405473381E-2,1.061347127E-2
6.046708493E0,-3.794888780E-2,4.871506989E-2,1.214058883E-2
6.065517139E0,-3.184041381E-2,6.520794332E-2,1.152974181E-2
6.084325785E0,-2.359397523E-2,6.917845458E-2,1.061347127E-2
6.103134378E0,-1.504211407E-2,5.757235363E-2,8.170082234E-3
6.121943024E0,-1.351499557E-2,3.252761811E-2,6.032116711E-3
6.140751670E0,-2.176143415E-2,1.175880991E-2,6.337540224E-3
6.159560316E0,-3.153498843E-2,4.734066315E-3,5.421269219E-3
6.178368962E0,-3.000787087E-2,8.704573847E-3,5.115845706E-3
6.197177555E0,-2.695363574E-2,1.359135192E-2,5.421269219E-3
6.215986201E0,-1.840177365E-2,2.061609551E-2,5.115845706E-3
6.234794847E0,-1.107160654E-2,2.550287358E-2,6.948387716E-3
6.253603493E0,-1.779092662E-2,2.580829710E-2,5.421269219E-3
6.272412139E0,-3.214583546E-2,1.908897609E-2,5.421269219E-3
6.291220732E0,-3.947600350E-2,1.145338640E-2,8.780929260E-3
6.310029378E0,-3.367295489E-2,1.206423342E-2,1.305686031E-2
6.328838024E0,-1.870719716E-2,1.267508045E-2,9.391776286E-3
6.347646670E0,-1.603474026E-3,-6.872031838E-3,1.061347127E-2
6.366455316E0,2.672456671E-3,-3.741439432E-2,1.183516532E-2
6.385263962E0,-1.748550311E-2,-5.573981255E-2,7.253811229E-3
6.404072555E0,-3.306210786E-2,-6.093201414E-2,1.214058883E-2
6.422881201E0,-4.161396995E-2,-5.482354015E-2,1.397313084E-2
6.441689847E0,-4.711159319E-2,-6.306997687E-2,1.183516532E-2
6.460498493E0,-5.169294775E-2,-7.009471953E-2,8.170082234E-3
6.479307087E0,-2.359397523E-2,-5.054761097E-2,7.864658721E-3
6.498115732E0,3.199312463E-2,-2.458660305E-2,5.726693198E-3
6.516924378E0,5.428905040E-2,-1.511846948E-2,5.344913807E-4
6.535733024E0,2.680092305E-2,-1.572931744E-2,3.588727675E-3
6.554541670E0,1.450762269E-3,-4.428642802E-3,8.780929260E-3
6.573350264E0,5.115845706E-3,2.290677279E-3,1.305686031E-2
6.592158910E0,3.894151188E-3,-8.399149403E-3,2.069245093E-2
6.610967555E0,-7.635590737E-5,-9.315420873E-3,2.283041552E-2
6.629776201E0,7.253811229E-3,1.985253533E-3,1.855448633E-2
6.648584795E0,1.366770733E-2,3.206948051E-3,1.611109637E-2
6.667393441E0,1.427855436E-2,6.261184346E-3,1.030804776E-2
6.686202087E0,8.399150101E-4,1.985253533E-3,7.559234742E-3
6.705010732E0,-1.473669056E-2,-2.641914412E-2,6.642963737E-3
6.723819326E0,-1.168245357E-2,-4.382828996E-2,1.366770733E-2
6.742627972E0,-8.933641016E-3,-8.093725890E-3,2.130329795E-2
6.761436618E0,-6.872031372E-4,4.382828996E-2,1.427855436E-2
6.780245264E0,1.702736691E-2,4.077405483E-2,6.948387716E-3
6.799053910E0,1.977618039E-2,-9.926267900E-3,9.697199799E-3
6.817862503E0,-7.101099472E-3,-3.863608837E-2,1.702736691E-2
6.836671149E0,-3.703261539E-2,-1.114796288E-2,1.244601328E-2
6.855479795E0,-4.039227590E-2,3.069507517E-2,8.170082234E-3
6.874288441E0,-2.786990628E-2,4.046862945E-2,1.756185899E-3
6.893097035E0,-1.656923257E-2,1.969982497E-2,1.756185899E-3
6.911905680E0,-2.267770469E-2,1.847812906E-2,5.726693198E-3
6.930714326E0,-4.161396995E-2,5.329642445E-2,1.061347127E-2
6.949522972E0,-6.849125028E-2,1.064401343E-1,1.458397787E-2
6.968331566E0,-1.014770046E-1,1.464506239E-1,5.421269219E-3
6.987140212E0,-9.353598952E-2,1.382041872E-1,-2.214321401E-3
7.005948857E0,-5.474718660E-2,7.925742865E-2,6.642963737E-3
7.024757503E0,-7.918107510E-2,3.405473381E-2,1.977618039E-2
7.043566097E0,-1.204132661E-1,4.627167806E-2,9.697199799E-3
7.062374743E0,-9.567394853E-2,7.009471953E-2,8.399150101E-4
7.081183389E0,-4.588989913E-2,6.765133142E-2,-9.239064530E-3
7.099991982E0,-3.000787087E-2,6.184828654E-2,-1.046075951E-2
7.118800628E0,-3.581092134E-2,6.123743951E-2,-2.214321401E-3
7.137609274E0,-2.939702384E-2,4.902049154E-2,3.283303929E-3
7.156417920E0,-2.420482226E-2,4.321744293E-2,9.086352773E-3
7.175226514E0,-3.733803704E-2,5.879404768E-2,4.504998680E-3
7.194035160E0,-3.397838026E-2,6.948387623E-2,-9.239064530E-3
7.212843805E0,-2.909160033E-2,5.054761097E-2,-7.406522986E-3
7.231652451E0,-4.344651103E-2,2.367033064E-2,1.145338640E-3
7.250461045E0,-5.230379477E-2,1.359135192E-2,4.504998680E-3
7.269269691E0,-4.955498502E-2,2.367033064E-2,8.170082234E-3
7.288078337E0,-4.527905211E-2,2.977880463E-2,7.559234742E-3
7.306886930E0,-3.703261539E-2,1.359135192E-2,9.391776286E-3
7.325695576E0,-3.581092134E-2,1.679830020E-3,9.391776286E-3
7.344504222E0,-1.962346770E-2,4.581354442E-4,9.697199799E-3
7.363312816E0,-5.268557463E-3,-6.566607859E-3,7.864658721E-3
7.382121462E0,-2.519744914E-3,-1.786728203E-2,6.032116711E-3
7.400930107E0,4.504998680E-3,-2.825168520E-2,2.672456671E-3
7.419738753E0,8.170082234E-3,-2.916795574E-2,3.588727675E-3
7.438547347E0,2.977880416E-3,-2.153236605E-2,2.061609412E-3
7.457355993E0,6.032116711E-3,-2.489202656E-2,2.061609412E-3
7.476164639E0,7.559234742E-3,-3.619270027E-2,1.061347127E-2
7.494973232E0,2.061609412E-3,-2.367033064E-2,2.008160390E-2
7.513781878E0,-3.817795368E-4,5.955760833E-3,2.160872146E-2
7.532590524E0,5.421269219E-3,1.572931744E-2,2.435753495E-2
7.551399118E0,3.894151188E-3,9.620844387E-3,2.221956849E-2
7.570207764E0,1.488940232E-2,-1.847812906E-2,1.672194339E-2
7.589016410E0,1.763821393E-2,-4.382828996E-2,1.641651988E-2
7.607825055E0,1.030804776E-2,-3.344388679E-2,1.305686031E-2
7.626633649E0,-2.519744914E-3,1.527118147E-4,6.642963737E-3
7.645442295E0,-3.130592173E-3,1.359135192E-2,3.588727675E-3
7.664250941E0,5.344913807E-4,7.482878864E-3,8.170082234E-3
7.683059535E0,-2.214321401E-3,-9.926267900E-3,1.336228382E-2
7.701868180E0,-2.214321401E-3,-1.175880991E-2,1.305686031E-2
7.720676826E0,3.894151188E-3,1.969982497E-2,1.152974181E-2
7.739485420E0,-3.817795368E-4,5.115845799E-2,1.152974181E-2
7.758294066E0,1.450762269E-3,2.153236605E-2,1.641651988E-2
7.777102712E0,8.475505747E-3,-8.093725890E-3,2.557922900E-2
7.795911305E0,8.170082234E-3,1.053711493E-2,1.397313084E-2
7.814719951E0,1.183516532E-2,3.206948051E-3,2.672456671E-3
7.833528597E0,1.641651988E-2,-1.756185852E-2,-4.046862945E-3
7.852337191E0,8.475505747E-3,-1.786728203E-2,3.588727675E-3
7.871145837E0,-9.926267667E-4,-6.872031838E-3,1.702736691E-2
7.889954482E0,-3.436015919E-3,2.901524538E-3,2.374668792E-2
7.908763076E0,8.399150101E-4,1.481304597E-2,1.916533336E-2
7.927571722E0,-4.352286924E-3,1.023169141E-2,8.475505747E-3
7.946380368E0,5.726693198E-3,-2.794626169E-2,-1.908897655E-3
7.965188962E0,2.557922900E-2,-5.604523420E-2,1.450762269E-3
7.983997607E0,2.008160390E-2,-4.535540938E-2,7.253811229E-3
8.002806253E0,1.122431830E-2,4.734066315E-3,8.780929260E-3
8.021614847E0,1.763821393E-2,3.161134571E-2,5.726693198E-3
8.040423493E0,1.733279042E-2,-1.374406274E-3,9.391776286E-3
8.059232139E0,2.672456671E-3,-1.298050396E-2,1.641651988E-2
8.078040732E0,-3.130592173E-3,2.794626169E-2,1.488940232E-2
8.096849378E0,-4.352286924E-3,5.604523420E-2,1.030804776E-2
8.115658024E0,-1.504211407E-2,2.275406010E-2,8.475505747E-3
8.134466618E0,-1.748550311E-2,-2.611372061E-2,9.697199799E-3
8.153275264E0,-1.840177365E-2,-3.436015919E-2,9.086352773E-3
8.172083910E0,-2.634278871E-2,-9.926267900E-3,4.504998680E-3
8.190892503E0,-1.962346770E-2,7.482878864E-3,-1.908897655E-3
8.209701149E0,2.672456671E-3,-1.527118147E-4,-4.046862945E-3
8.228509743E0,2.099787444E-2,-1.847812906E-2,2.977880416E-3
8.247318389E0,1.244601328E-2,5.650337320E-3,7.253811229E-3
8.266127035E0,5.115845706E-3,4.963133857E-2,5.421269219E-3
8.284935628E0,2.405211143E-2,3.038965166E-2,6.948387716E-3
8.303744274E0,2.405211143E-2,-2.290677279E-3,1.427855436E-2
8.322552920E0,8.475505747E-3,-1.527118147E-4,1.427855436E-2
8.341361514E0,-4.963133950E-3,2.122694254E-2,9.391776286E-3
8.360170160E0,-6.872031372E-4,1.450762246E-2,5.726693198E-3
8.378978805E0,3.894151188E-3,-1.145338640E-2,7.253811229E-3
8.397787399E0,-3.130592173E-3,-1.084253844E-2,-7.635590737E-5
8.416596045E0,-4.963133950E-3,9.926267900E-3,6.948387716E-3
8.435404639E0,-2.519744914E-3,3.100049868E-2,1.550024934E-2
8.454213285E0,8.780929260E-3,2.367033064E-2,1.488940232E-2
8.473021930E0,1.550024934E-2,1.511846948E-2,1.305686031E-2
8.491830524E0,5.115845706E-3,3.191677108E-2,1.091889478E-2
8.510639170E0,-7.711946499E-3,4.657710344E-2,5.421269219E-3
8.529447764E0,5.421269219E-3,3.649812192E-2,3.894151188E-3
8.548256410E0,1.916533336E-2,2.550287358E-2,3.283303929E-3
8.567065055E0,1.763821393E-2,5.665608495E-2,-1.298050396E-3
8.585873649E0,1.855448633E-2,9.147437662E-2,-1.298050396E-3
8.604682295E0,2.160872146E-2,8.567132801E-2,4.810422193E-3
8.623490941E0,1.885990985E-2,4.840964451E-2,1.611109637E-2
8.642299535E0,9.697199799E-3,3.222219273E-2,2.160872146E-2
8.661108180E0,1.366770733E-2,6.001574174E-2,1.336228382E-2
8.679916774E0,1.122431830E-2,9.483403713E-2,2.367033157E-3
8.698725420E0,8.780929260E-3,1.003316641E-1,-6.795675959E-3
8.717534014E0,-1.198787708E-2,7.559234649E-2,-5.268557463E-3
8.736342660E0,-3.092414327E-2,7.803573459E-2,-1.015533600E-2
8.755151305E0,-2.939702384E-2,1.528645307E-1,3.588727675E-3
8.773959899E0,-2.328855172E-2,2.215848416E-1,2.741177008E-2
8.792768545E0,6.948387716E-3,1.797417998E-1,3.413109109E-2
8.811577191E0,2.771719359E-2,9.666658193E-2,3.779617324E-2
8.830385785E0,2.405211143E-2,5.696150661E-2,3.077143058E-2
8.849194430E0,1.244601328E-2,4.840964451E-2,1.550024934E-2
8.868003024E0,9.391776286E-3,2.550287358E-2,-1.908897655E-3
8.886811670E0,9.391776286E-3,-7.177455351E-3,-1.168245357E-2
8.905620264E0,3.588727675E-3,-2.550287358E-2,-9.239064530E-3
8.924428910E0,1.450762269E-3,-2.275406010E-2,-3.436015919E-3
8.943237555E0,1.450762269E-3,-5.955760833E-3,2.290677221E-4
8.962046149E0,-4.657710437E-3,1.267508045E-2,-3.817795368E-4
8.980854795E0,-1.534753758E-2,2.641914412E-2,-2.214321401E-3
8.999663389E0,-3.122956678E-2,3.497100621E-2,-5.268557463E-3
9.018472035E0,-3.397838026E-2,3.527642787E-2,3.894151188E-3
9.037280680E0,-1.137703005E-2,2.977880463E-2,1.702736691E-2
9.056089274E0,-8.933641016E-3,2.855710872E-2,1.763821393E-2
9.074897920E0,-6.872031372E-4,2.275406010E-2,1.702736691E-2
9.093706514E0,9.697199799E-3,2.596100792E-3,1.091889478E-2
9.112515160E0,7.559234742E-3,-3.771981969E-2,2.977880416E-3
9.131323805E0,-7.635590737E-5,-9.239064902E-2,-2.519744914E-3
9.150132399E0,1.145338640E-3,-1.238492802E-1,-8.628217503E-3
9.168941045E0,5.115845706E-3,-1.226275861E-1,-1.198787708E-2
9.187749639E0,6.032116711E-3,-9.391776472E-2,-9.849912487E-3
9.206558285E0,-2.825168660E-3,-6.551336497E-2,-7.101099472E-3
9.225366878E0,-1.840177365E-2,-5.421269313E-2,-6.872031372E-4
9.244175524E0,-2.634278871E-2,-2.977880463E-2,6.642963737E-3
9.262984170E0,-6.184828468E-3,1.542389300E-2,1.122431830E-2
9.281792764E0,8.475505747E-3,7.070557028E-2,2.252499200E-2
9.300601410E0,-1.908897655E-3,1.183516532E-1,3.260397166E-2
9.319410003E0,-7.711946499E-3,1.272089481E-1,2.252499200E-2
9.338218649E0,4.504998680E-3,8.231166750E-2,1.244601328E-2
9.357027243E0,1.000262424E-2,5.268557742E-2,1.336228382E-2
9.375835889E0,1.244601328E-2,7.650861889E-2,1.122431830E-2
9.394644482E0,2.069245093E-2,1.195733473E-1,1.947075687E-2
9.413453128E0,2.130329795E-2,1.458397806E-1,3.565821052E-2
9.432261722E0,2.038702741E-2,1.360662282E-1,3.474193811E-2
9.451070368E0,1.488940232E-2,1.272089481E-1,2.344126441E-2
9.469879014E0,9.697199799E-3,1.461452097E-1,2.619007602E-2
9.488687607E0,4.810422193E-3,1.397313178E-1,1.824906096E-2
9.507496253E0,-1.603474026E-3,1.070509851E-1,8.170082234E-3
9.526304847E0,2.977880416E-3,3.558185324E-2,2.527380548E-2
9.545113493E0,-1.626380906E-2,-4.169032723E-2,4.451549426E-2
9.563922087E0,-3.978142887E-2,-6.276455522E-2,2.649549954E-2
9.582730732E0,-4.039227590E-2,-6.978929788E-2,2.710634656E-2
9.601539326E0,-2.389939874E-2,-7.681404054E-2,2.374668792E-2
9.620347972E0,3.901786730E-2,-6.795676053E-2,2.619007602E-2
9.639156566E0,3.443651274E-2,-4.596625641E-2,4.207210615E-2
9.657965212E0,-3.436015919E-3,-1.328592747E-2,5.184566230E-2
9.676773857E0,-2.053973824E-2,-2.244863659E-2,5.215108395E-2
9.695582451E0,-1.229330152E-2,-6.490252167E-2,3.749075159E-2
9.714391097E0,2.290677221E-4,-1.088835225E-1,1.427855436E-2
9.733199691E0,7.864658721E-3,-1.375933439E-1,2.977880416E-3
9.752008337E0,-1.298050396E-3,-1.409530044E-1,8.399150101E-4
9.770816930E0,-4.352286924E-3,-1.250709742E-1,1.366770733E-2
9.789625576E0,-7.635590737E-5,-1.043021679E-1,3.107685409E-2
9.808434170E0,-1.298050396E-3,-9.727742523E-2,3.290939704E-2
9.827242816E0,4.199574701E-3,-1.091889441E-1,3.382566571E-2
9.846051410E0,-4.046862945E-3,-1.183516532E-1,3.168770298E-2
9.864860055E0,-1.595838554E-2,-1.052184403E-1,2.191414498E-2
9.883668649E0,-6.184828468E-3,-9.452861547E-2,9.697199799E-3
9.902477295E0,1.061347127E-2,-1.015533581E-1,5.421269219E-3
9.921285889E0,1.336228382E-2,-1.039967462E-1,1.824906096E-2
9.940094535E0,4.504998680E-3,-1.134648770E-1,2.496838197E-2
9.958903180E0,-2.825168660E-3,-1.201841980E-1,3.504735976E-2
9.977711774E0,-1.603474026E-3,-1.076618284E-1,4.543176666E-2
9.996520420E0,4.504998680E-3,-8.964183182E-2,4.726430774E-2
1.001532901E1,1.916533336E-2,-8.231166750E-2,4.604261369E-2
1.003413766E1,2.588465251E-2,-8.872556686E-2,3.779617324E-2
1.005294625E1,2.649549954E-2,-9.666658193E-2,3.199312463E-2
1.007175490E1,2.863346599E-2,-9.910997003E-2,2.527380548E-2
1.009056349E1,1.794363745E-2,-8.780929446E-2,1.641651988E-2
1.010937214E1,6.337540224E-3,-7.803573459E-2,1.366770733E-2
1.012818073E1,2.672456671E-3,-7.773031294E-2,1.183516532E-2
1.014698938E1,-5.879404955E-3,-8.567132801E-2,6.948387716E-3
1.016579797E1,-1.779092662E-2,-8.842013776E-2,1.030804776E-2
1.018460662E1,-2.023431472E-2,-7.834116369E-2,2.061609412E-3
1.020341521E1,-6.184828468E-3,-4.413371533E-2,2.061609412E-3
1.022222386E1,6.337540224E-3,-1.969982497E-2,2.191414498E-2
1.024103245E1,9.086352773E-3,-2.183778957E-2,3.596363217E-2
1.025984110E1,1.091889478E-2,-1.328592747E-2,4.359922186E-2
1.027864969E1,1.733279042E-2,8.704573847E-3,4.573718831E-2
1.029745834E1,1.794363745E-2,1.206423342E-2,3.535278514E-2
1.031626693E1,3.229855001E-2,1.359135192E-2,2.954973653E-2
1.033507558E1,5.520532280E-2,1.389677543E-2,2.344126441E-2
1.035388417E1,5.581616983E-2,1.603474095E-2,1.397313084E-2
1.037269282E1,2.405211143E-2,1.114796288E-2,1.672194339E-2
1.039150141E1,1.756185899E-3,1.695101149E-2,-6.872031372E-4
1.041031006E1,-7.711946499E-3,4.504998401E-2,-1.534753758E-2
1.042911865E1,6.642963737E-3,7.070557028E-2,-1.748550311E-2
1.044792730E1,3.474193811E-2,7.711946964E-2,-1.076618303E-2
1.046673589E1,4.940227047E-2,7.192726433E-2,-7.635590737E-5
1.048554454E1,3.321481869E-2,7.559234649E-2,-6.184828468E-3
1.050435313E1,-5.879404955E-3,1.003316641E-1,-1.473669056E-2
1.052316177E1,-2.878617682E-2,1.149920002E-1,-1.229330152E-2
1.054197037E1,-7.406522986E-3,1.149920002E-1,-1.748550311E-2
1.056077901E1,3.779617324E-2,1.113269106E-1,-1.626380906E-2
1.057958761E1,5.123481527E-2,1.003316641E-1,-1.107160654E-2
1.059839620E1,1.855448633E-2,9.758284688E-2,-1.656923257E-2
1.061720485E1,-1.595838554E-2,9.910997003E-2,-3.436015919E-3
1.063601344E1,-1.901262067E-2,7.711946964E-2,-2.519744914E-3
1.065482209E1,6.642963737E-3,3.710897267E-2,-7.101099472E-3
1.067363068E1,3.016058356E-2,2.550287358E-2,-7.635590737E-5
1.069243933E1,3.199312463E-2,3.558185324E-2,-6.872031372E-4
1.071124792E1,4.726430774E-2,4.291202128E-2,-1.840177365E-2
1.073005657E1,7.811209559E-2,7.375980914E-2,-3.794888780E-2
1.074886516E1,9.124530852E-2,1.152974218E-1,-2.756448276E-2
1.076767381E1,7.627955079E-2,1.751604527E-1,-2.939702384E-2
1.078648240E1,5.642701685E-2,1.846285909E-1,-2.237228118E-2
1.080529104E1,5.154023692E-2,1.137702987E-1,6.032116711E-3
1.082409964E1,5.917582661E-2,-1.145338640E-2,1.824906096E-2
1.084290828E1,7.597412914E-2,-1.137702987E-1,1.183516532E-2
1.086171688E1,9.032903612E-2,-1.229330078E-1,9.086352773E-3
1.088052547E1,9.216158092E-2,-6.704048812E-2,8.399150101E-4
1.089933412E1,6.436803192E-2,5.039489828E-3,-9.849912487E-3
1.091814271E1,2.893888950E-2,3.313846514E-2,-2.298312820E-2
1.093695136E1,1.519482583E-2,1.068982761E-3,-3.764346242E-2
1.095575995E1,2.069245093E-2,-5.848862603E-2,-4.314108938E-2
1.097456860E1,2.863346599E-2,-8.811471611E-2,-3.733803704E-2
1.099337719E1,1.672194339E-2,-4.138490185E-2,-3.092414327E-2
1.101218584E1,1.450762269E-3,5.421269313E-2,-1.931804419E-2
1.103099443E1,2.290677221E-4,1.174353883E-1,-8.322793990E-3
1.104980308E1,7.253811229E-3,8.658760041E-2,9.086352773E-3
1.106861167E1,5.115845706E-3,-7.635590737E-4,8.780929260E-3
1.108742032E1,1.152974181E-2,-6.826218218E-2,-1.779092662E-2
1.110622891E1,2.069245093E-2,-6.459710002E-2,-2.084516361E-2
1.112503756E1,2.557922900E-2,-1.481304597E-2,-2.756448276E-2
1.114384615E1,2.588465251E-2,-1.679830020E-3,-2.420482226E-2
1.116265474E1,1.885990985E-2,-4.123218823E-3,-3.130592173E-3
1.118146339E1,-2.214321401E-3,-5.344913341E-3,1.000262424E-2
1.120027198E1,-1.748550311E-2,-9.926267900E-3,1.763821393E-2
1.121908063E1,-1.992889121E-2,-1.511846948E-2,1.305686031E-2
1.123788922E1,-1.015533600E-2,1.969982497E-2,-5.268557463E-3
1.125669787E1,8.475505747E-3,8.597674966E-2,9.697199799E-3
1.127550646E1,2.374668792E-2,1.229330078E-1,2.557922900E-2
1.129431506E1,2.619007602E-2,1.030804738E-1,6.337540224E-3
1.131312370E1,2.221956849E-2,6.154286116E-2,6.948387716E-3
1.133193230E1,1.275143679E-2,4.932591692E-2,8.399150101E-4
1.135074094E1,5.421269219E-3,6.887302548E-2,-1.320957206E-2
1.136954954E1,4.199574701E-3,1.097997949E-1,-1.779092662E-2
1.138835818E1,-7.635590737E-5,1.476723254E-1,-6.490251981E-3
1.140716677E1,-3.741439432E-3,1.653869003E-1,1.122431830E-2
1.142597542E1,-6.795675959E-3,1.586675793E-1,2.435753495E-2
1.144478401E1,-2.176143415E-2,1.293469071E-1,1.214058883E-2
1.146359261E1,-5.535803363E-2,1.287360638E-1,-2.359397523E-2
1.148240125E1,-6.574243307E-2,1.663031727E-1,-3.550549597E-2
1.150120985E1,-3.336753324E-2,1.925695986E-1,-2.848075330E-2
1.152001849E1,-7.406522986E-3,1.751604527E-1,-4.352286924E-3
1.153882709E1,-1.259872504E-2,1.571404636E-1,2.832804248E-2
1.155763573E1,-7.406522986E-3,1.873773932E-1,3.871244565E-2
1.157644433E1,1.916533336E-2,2.463241518E-1,3.932329267E-2
1.159525292E1,4.085041210E-2,2.832804024E-1,3.749075159E-2
1.161406157E1,5.581616983E-2,2.603736520E-1,3.871244565E-2
1.163287016E1,6.467345357E-2,1.626380831E-1,3.840702027E-2
1.165167881E1,7.047650218E-2,5.451811850E-2,3.749075159E-2
1.167048740E1,5.948125198E-2,2.092151903E-2,4.390464723E-2
1.168929604E1,2.374668792E-2,3.161134571E-2,4.237752780E-2
1.170810464E1,-8.933641016E-3,4.413371533E-2,1.366770733E-2
1.172691323E1,-2.267770469E-2,5.344913341E-3,1.550024934E-2
1.174572188E1,-1.992889121E-2,-6.856760383E-2,1.733279042E-2
1.176453047E1,-2.603736520E-2,-1.214058921E-1,6.337540224E-3
1.178333912E1,-3.855973482E-2,-1.204896197E-1,-1.626380906E-2
1.180214771E1,-4.619532451E-2,-1.385096163E-1,-2.481566928E-2
1.182095631E1,-2.420482226E-2,-2.136438340E-1,-1.748550311E-2
1.183976495E1,-1.015533600E-2,-2.835858464E-1,5.421269219E-3
1.185857354E1,-1.534753758E-2,-2.976353168E-1,1.733279042E-2
1.187738219E1,-4.963133950E-3,-2.670929730E-1,9.391776286E-3
1.189619078E1,2.496838197E-2,-2.399102598E-1,-9.926267667E-4
1.191499943E1,4.329380020E-2,-2.081461996E-1,-8.628217503E-3
1.193380802E1,4.176668078E-2,-1.696628332E-1,-1.779092662E-2
1.195261662E1,3.321481869E-2,-1.369825006E-1,-9.849912487E-3
1.197142526E1,2.221956849E-2,-1.149920002E-1,4.810422193E-3
1.199023386E1,3.894151188E-3,-1.107160673E-1,1.366770733E-2
1.200904245E1,-2.176143415E-2,-9.513945878E-2,9.086352773E-3
1.202785110E1,-3.061871976E-2,-5.604523420E-2,6.032116711E-3
1.204665969E1,-1.870719716E-2,-1.450762246E-2,9.697199799E-3
1.206546834E1,8.475505747E-3,1.420219894E-2,1.641651988E-2
1.208427693E1,3.413109109E-2,4.016320780E-2,2.924431302E-2
1.210308552E1,3.046600707E-2,7.284353673E-2,3.077143058E-2
1.212189417E1,1.947075687E-2,8.903098851E-2,2.160872146E-2
1.214070276E1,2.221956849E-2,7.711946964E-2,8.780929260E-3
1.215951141E1,2.557922900E-2,5.604523420E-2,5.115845706E-3
1.217832000E1,3.168770298E-2,5.024218559E-2,1.427855436E-2
1.219712865E1,2.710634656E-2,5.879404768E-2,1.550024934E-2
1.221593724E1,1.244601328E-2,5.635065958E-2,1.458397787E-2
1.223474584E1,2.367033157E-3,4.382828996E-2,8.475505747E-3
1.225355448E1,-9.544488043E-3,2.764083818E-2,-7.635590737E-5
1.227236308E1,-1.809635013E-2,1.328592747E-2,-5.879404955E-3
1.229117172E1,-1.656923257E-2,2.641914412E-2,-4.352286924E-3
1.230998032E1,-3.741439432E-3,5.971032009E-2,6.642963737E-3
1.232878891E1,4.810422193E-3,7.284353673E-2,1.336228382E-2
1.234759756E1,2.367033157E-3,6.184828654E-2,8.475505747E-3
1.236640615E1,-2.214321401E-3,5.146388337E-2,4.504998680E-3
1.238521474E1,-3.436015919E-3,4.627167806E-2,6.642963737E-3
1.240402339E1,-3.741439432E-3,2.825168520E-2,1.030804776E-2
1.242283198E1,2.367033157E-3,6.566607859E-3,9.697199799E-3
1.244164063E1,1.366770733E-2,-1.084253844E-2,1.214058883E-2
1.246044922E1,1.672194339E-2,-1.939439960E-2,3.588727675E-3
1.247925782E1,9.391776286E-3,-1.511846948E-2,-7.101099472E-3
1.249806646E1,-3.741439432E-3,-1.420219894E-2,-8.933641016E-3
1.251687506E1,-1.473669056E-2,-2.550287358E-2,-3.741439432E-3
1.253568365E1,-9.239064530E-3,-3.191677108E-2,1.152974181E-2
1.255449230E1,-6.872031372E-4,-1.175880991E-2,1.763821393E-2
1.257330089E1,-3.436015919E-3,1.786728203E-2,1.275143679E-2
1.259210954E1,-1.015533600E-2,1.756185852E-2,4.199574701E-3
1.261091813E1,-1.107160654E-2,-1.420219894E-2,-3.817795368E-4
1.262972672E1,-3.130592173E-3,-3.833066672E-2,-2.519744914E-3
1.264853537E1,1.756185899E-3,-4.627167806E-2,-9.926267667E-4
1.266734396E1,5.344913807E-4,-5.665608495E-2,6.642963737E-3
1.268615256E1,-1.107160654E-2,-7.223268598E-2,1.030804776E-2
1.270496120E1,-2.328855172E-2,-6.581879407E-2,-3.436015919E-3
1.272376980E1,-1.473669056E-2,-5.085303262E-2,-6.872031372E-4
1.274257839E1,-2.214321401E-3,-4.474456236E-2,-7.635590737E-5
1.276138704E1,-9.926267667E-4,-5.238015205E-2,-3.741439432E-3
1.278019563E1,3.588727675E-3,-4.993676394E-2,1.145338640E-3
1.279900427E1,1.611109637E-2,-3.710897267E-2,2.061609412E-3
1.281781287E1,2.008160390E-2,-3.924693540E-2,6.948387716E-3
1.283662146E1,2.557922900E-2,-4.688252881E-2,1.336228382E-2
1.285543011E1,2.802261710E-2,-5.604523420E-2,1.183516532E-2
1.287423870E1,2.435753495E-2,-6.459710002E-2,1.145338640E-3
1.289304730E1,2.283041552E-2,-6.154286116E-2,-9.849912487E-3
1.291185594E1,1.488940232E-2,-5.573981255E-2,-2.267770469E-2
1.293066454E1,2.367033157E-3,-5.971032009E-2,-2.817532979E-2
1.294947313E1,-8.322793990E-3,-6.948387623E-2,-2.481566928E-2
1.296828177E1,-1.595838554E-2,-7.406523079E-2,-1.931804419E-2
1.298709037E1,-2.420482226E-2,-6.795676053E-2,-2.298312820E-2
1.300589896E1,-2.878617682E-2,-5.054761097E-2,-1.779092662E-2
1.302470761E1,-2.542651631E-2,-3.497100621E-2,-2.573194169E-2
1.304351620E1,-2.176143415E-2,-3.802524135E-2,-3.031329438E-2
1.306232485E1,-1.473669056E-2,-5.421269313E-2,-2.909160033E-2
1.308113344E1,-1.908897655E-3,-5.848862603E-2,-2.603736520E-2
1.309994204E1,3.283303929E-3,-3.771981969E-2,-1.015533600E-2
1.311875068E1,8.399150101E-4,-1.267508045E-2,2.290677221E-4
1.313755927E1,-3.817795368E-4,-1.023169141E-2,5.421269219E-3
1.315636787E1,-4.657710437E-3,-1.511846948E-2,5.344913807E-4
1.317517651E1,-9.239064530E-3,-3.206948051E-3,-1.504211407E-2
1.319398511E1,-1.908897655E-3,-2.290677279E-3,-1.840177365E-2
1.321279370E1,7.864658721E-3,-3.710897267E-2,-2.084516361E-2
1.323160235E1,8.475505747E-3,-8.139539510E-2,-2.420482226E-2
1.325041094E1,2.672456671E-3,-9.575030953E-2,-2.115058713E-2
1.326921954E1,-4.352286924E-3,-7.620319724E-2,-2.023431472E-2
1.328802818E1,-1.443126611E-2,-6.062658876E-2,-2.176143415E-2
1.330683677E1,-3.397838026E-2,-8.017370105E-2,-2.939702384E-2
1.332564537E1,-3.947600350E-2,-1.122431830E-1,-3.397838026E-2
1.334445401E1,-3.153498843E-2,-1.443126649E-1,-3.458922729E-2
1.336326261E1,-2.053973824E-2,-1.656923145E-1,-3.550549597E-2
1.338207120E1,-1.595838554E-2,-1.644706279E-1,-2.664821222E-2
1.340087985E1,-1.412584260E-2,-1.378987730E-1,-1.412584260E-2
1.341968844E1,-1.015533600E-2,-7.620319724E-2,-1.137703005E-2
1.343849704E1,5.115845706E-3,4.123218823E-3,4.199574701E-3
1.345730568E1,2.221956849E-2,8.017370105E-2,2.954973653E-2
1.347611427E1,2.374668792E-2,1.036913246E-1,6.284090877E-2
1.349492287E1,2.221956849E-2,7.895200700E-2,5.948125198E-2
1.351373151E1,3.687990457E-2,4.413371533E-2,4.695888236E-2
1.353254011E1,4.695888236E-2,2.794626169E-2,3.901786730E-2
1.355134870E1,3.016058356E-2,6.872031838E-3,2.588465251E-2
1.357015735E1,-5.268557463E-3,-3.405473381E-2,1.214058883E-2
1.358896594E1,-3.917058185E-2,-1.030804738E-1,-7.101099472E-3
1.360777454E1,-5.169294775E-2,-1.760767251E-1,-2.267770469E-2
1.362658318E1,-4.130854458E-2,-2.316638231E-1,-4.100312293E-2
1.364539177E1,-1.840177365E-2,-2.719797492E-1,-5.077667907E-2
1.366420037E1,4.504998680E-3,-2.860292196E-1,-4.497363046E-2
1.368300901E1,1.458397787E-2,-2.420482337E-1,-3.550549597E-2
1.370181761E1,2.557922900E-2,-1.721062213E-1,-5.879404955E-3
1.372062620E1,1.916533336E-2,-1.091889441E-1,1.702736691E-2
1.373943480E1,6.337540224E-3,-4.474456236E-2,6.948387716E-3
1.375824344E1,1.488940232E-2,1.939439960E-2,3.016058356E-2
1.377705204E1,4.329380020E-2,5.665608495E-2,6.467345357E-2
1.379586063E1,6.833853573E-2,6.184828654E-2,7.261446863E-2
1.381466927E1,6.803311408E-2,4.810422286E-2,7.353074104E-2
1.383347787E1,5.489989743E-2,2.031067200E-2,7.230904698E-2
1.385228646E1,5.367820337E-2,-1.847812906E-2,6.589514762E-2
1.387109511E1,4.940227047E-2,-6.520794332E-2,4.634803534E-2
1.388990370E1,2.741177008E-2,-9.941539168E-2,2.069245093E-2
1.390871230E1,3.413109109E-2,-1.143811494E-1,3.413109109E-2
1.392752094E1,1.244601328E-2,-7.803573459E-2,3.260397166E-2
1.394632954E1,-5.505260825E-2,3.466558084E-2,7.864658721E-3
1.396513813E1,-8.223531395E-2,1.070509851E-1,3.138227761E-2
1.398394672E1,-7.490514219E-2,1.061347127E-1,1.947075687E-2
1.400275537E1,-7.857023180E-2,9.727742523E-2,2.290677221E-4
1.402156396E1,-5.474718660E-2,5.390727147E-2,2.741177008E-2
1.404037256E1,-3.245126083E-2,8.536590636E-2,3.413109109E-2
1.405918120E1,-2.145601064E-2,1.757712960E-1,4.054498672E-2
1.407798980E1,-1.290414855E-2,2.286095917E-1,6.772769243E-2
1.409679839E1,-2.115058713E-2,2.014268786E-1,7.383616269E-2
1.411560704E1,-3.703261539E-2,1.620272398E-1,7.780666649E-2
1.413441563E1,-3.794888780E-2,1.256818175E-1,7.139277458E-2
1.415322422E1,-2.573194169E-2,1.064401343E-1,5.764871091E-2
1.417203282E1,-5.573981442E-3,1.015533581E-1,3.504735976E-2
1.419084146E1,5.726693198E-3,1.012479365E-1,2.710634656E-2
1.420965006E1,8.399150101E-4,9.239064902E-2,3.779617324E-2
1.422845865E1,-3.130592173E-3,9.330692142E-2,4.970769584E-2
1.424726730E1,-1.137703005E-2,1.229330078E-1,7.597412914E-2
1.426607589E1,-2.664821222E-2,1.641651988E-1,9.307785332E-2
1.428488448E1,-3.000787087E-2,1.672194302E-1,8.635853231E-2
1.430369313E1,-2.115058713E-2,1.039967462E-1,6.620056927E-2
1.432250172E1,-2.756448276E-2,1.068982761E-3,4.512634128E-2
1.434131032E1,-3.917058185E-2,-6.123743951E-2,2.160872146E-2
1.436011891E1,-3.550549597E-2,-6.062658876E-2,1.397313084E-2
1.437892756E1,-3.733803704E-2,-1.695101149E-2,1.458397787E-2
1.439773615E1,-4.588989913E-2,9.926267900E-3,1.824906096E-2
1.441654474E1,-6.329904497E-2,-8.399149403E-3,3.260397166E-2
1.443535334E1,-8.284615725E-2,-4.474456236E-2,3.871244565E-2
1.445416198E1,-8.834378421E-2,-6.368082762E-2,3.016058356E-2
1.447297058E1,-8.131904155E-2,-5.451811850E-2,3.932329267E-2
1.449177917E1,-7.490514219E-2,-3.374931216E-2,4.451549426E-2
1.451058782E1,-7.124006003E-2,-1.236965694E-2,2.221956849E-2
1.452939641E1,-6.635328382E-2,4.734066315E-3,9.697199799E-3
1.454820500E1,-4.924955964E-2,-9.315420873E-3,2.252499200E-2
1.456701360E1,-3.642176837E-2,-3.038965166E-2,4.543176666E-2
1.458582224E1,-3.825430945E-2,-2.305948362E-2,6.681142002E-2
1.460463084E1,-4.466820508E-2,1.328592747E-2,7.047650218E-2
1.462343943E1,-4.314108938E-2,4.566083103E-2,5.856497958E-2
1.464224808E1,-2.848075330E-2,4.963133857E-2,3.749075159E-2
1.466105667E1,-1.718007959E-2,4.566083103E-2,2.221956849E-2
1.467986526E1,-1.504211407E-2,5.207473040E-2,3.260397166E-2
1.469867386E1,-1.779092662E-2,7.070557028E-2,5.154023692E-2
1.471748250E1,-1.718007959E-2,8.383878320E-2,6.284090877E-2
1.473629110E1,-5.573981442E-3,7.559234649E-2,7.627955079E-2
1.475509969E1,1.030804776E-2,5.451811850E-2,8.849649876E-2
1.477390829E1,2.313583903E-2,3.130592033E-2,7.780666649E-2
1.479271693E1,3.565821052E-2,1.053711493E-2,5.581616983E-2
1.481152552E1,4.421006888E-2,-2.290677279E-3,4.237752780E-2
1.483033412E1,4.268295318E-2,4.581354442E-4,2.130329795E-2
1.484914276E1,2.985516004E-2,1.679830020E-3,2.367033157E-3
1.486795136E1,8.780929260E-3,-9.620844387E-3,8.475505747E-3
1.488675995E1,-2.512109280E-2,-5.344913341E-3,2.649549954E-2
1.490556855E1,-5.841226876E-2,1.939439960E-2,3.229855001E-2
1.492437719E1,-6.757497787E-2,4.596625641E-2,3.932329267E-2
1.494318578E1,-4.344651103E-2,5.146388337E-2,4.665346071E-2
1.496199438E1,-1.603474026E-3,5.573981255E-2,4.451549426E-2
1.498080297E1,2.374668792E-2,6.612421572E-2,3.871244565E-2
1.499961162E1,3.588727675E-3,7.711946964E-2,4.054498672E-2
1.501842021E1,-1.840177365E-2,7.834116369E-2,3.779617324E-2
1.503722881E1,-3.741439432E-3,7.437065244E-2,2.863346599E-2
1.505603740E1,1.702736691E-2,7.834116369E-2,2.313583903E-2
1.507484605E1,1.733279042E-2,8.872556686E-2,2.893888950E-2
1.509365464E1,-7.635590737E-5,7.406523079E-2,3.138227761E-2
1.511246323E1,-4.046862945E-3,3.955236077E-2,3.718532622E-2
1.513127183E1,-1.015533600E-2,3.924693540E-2,4.634803534E-2
1.515008047E1,-2.573194169E-2,6.765133142E-2,3.901786730E-2
1.516888907E1,-1.992889121E-2,6.795676053E-2,2.832804248E-2
1.518769766E1,-9.926267667E-4,5.512896553E-2,2.160872146E-2
1.520650631E1,-1.298050396E-3,6.398624927E-2,2.588465251E-2
1.522531490E1,-1.412584260E-2,9.513945878E-2,3.535278514E-2
1.524412349E1,-2.267770469E-2,1.174353883E-1,4.421006888E-2
1.526293209E1,-1.534753758E-2,1.137702987E-1,4.848600179E-2
1.528174073E1,-6.795675959E-3,1.076618284E-1,5.764871091E-2
1.530054933E1,-7.711946499E-3,1.207950488E-1,5.337277800E-2
1.531935792E1,2.061609412E-3,1.491994411E-1,3.474193811E-2
1.533816651E1,1.450762269E-3,1.721062213E-1,3.199312463E-2
1.535697516E1,-9.239064530E-3,1.513374150E-1,3.413109109E-2
1.537578375E1,-4.963133950E-3,9.055810422E-2,2.283041552E-2
1.539459235E1,7.559234742E-3,1.969982497E-2,1.488940232E-2
1.541340094E1,7.559234742E-3,-2.367033064E-2,1.733279042E-2
1.543220959E1,-1.168245357E-2,-3.588727489E-2,1.702736691E-2
1.545101818E1,-2.756448276E-2,-1.511846948E-2,1.977618039E-2
1.546982677E1,-3.825430945E-2,2.916795574E-2,2.252499200E-2
1.548863537E1,-3.978142887E-2,5.604523420E-2,1.397313084E-2
1.550744401E1,-3.245126083E-2,4.413371533E-2,6.948387716E-3
1.552625261E1,-1.718007959E-2,3.817795310E-3,6.337540224E-3
1.554506120E1,2.367033157E-3,-3.710897267E-2,1.336228382E-2
1.556386985E1,2.290677221E-4,-3.038965166E-2,1.550024934E-2
1.558267844E1,-2.664821222E-2,1.298050396E-2,1.214058883E-2
1.560148704E1,-3.825430945E-2,5.115845799E-2,1.030804776E-2
1.562029563E1,-2.328855172E-2,5.390727147E-2,1.030804776E-2
1.563910422E1,-8.322793990E-3,3.405473381E-2,8.170082234E-3
1.565791287E1,-1.603474026E-3,3.512371797E-3,1.336228382E-2
1.567672146E1,4.810422193E-3,-2.611372061E-2,1.977618039E-2
1.569553006E1,1.183516532E-2,-3.924693540E-2,1.977618039E-2
1.571433870E1,6.642963737E-3,-4.443913698E-2,1.366770733E-2
1.573314730E1,-1.290414855E-2,-3.985778242E-2,-1.298050396E-3
1.575195589E1,-2.848075330E-2,-1.939439960E-2,-7.101099472E-3
1.577076448E1,-2.786990628E-2,5.039489828E-3,-4.046862945E-3
1.578957313E1,-1.504211407E-2,1.267508045E-2,3.283303929E-3
1.580838172E1,-1.107160654E-2,6.566607859E-3,1.305686031E-2
1.582719032E1,-1.687465608E-2,5.344913341E-3,2.313583903E-2
1.584599891E1,-2.267770469E-2,2.092151903E-2,2.985516004E-2
1.586480756E1,-1.382041909E-2,4.413371533E-2,2.741177008E-2
1.588361615E1,-1.046075951E-2,6.887302548E-2,1.702736691E-2
1.590242474E1,-1.931804419E-2,6.887302548E-2,1.183516532E-2
1.592123334E1,-1.992889121E-2,3.405473381E-2,1.427855436E-2
1.594004198E1,-8.322793990E-3,-4.428642802E-3,1.702736691E-2
1.595885058E1,3.283303929E-3,-2.214321308E-2,1.336228382E-2
1.597765917E1,2.290677221E-4,-6.261184346E-3,7.864658721E-3
1.599646776E1,-1.137703005E-2,2.275406010E-2,1.275143679E-2
1.601527641E1,-1.137703005E-2,2.702999115E-2,1.824906096E-2
1.603408500E1,-9.849912487E-3,1.236965694E-2,2.008160390E-2
1.605289360E1,-2.328855172E-2,1.053711493E-2,2.069245093E-2
1.607170219E1,-3.031329438E-2,2.428117767E-2,1.702736691E-2
1.609051084E1,-2.053973824E-2,3.985778242E-2,1.305686031E-2
1.610931943E1,-2.267770469E-2,4.382828996E-2,1.519482583E-2
1.612812802E1,-3.550549597E-2,3.344388679E-2,1.794363745E-2
1.614693662E1,-3.672719002E-2,5.039489828E-3,2.069245093E-2
1.616574526E1,-2.542651631E-2,-1.634016447E-2,1.855448633E-2
1.618455386E1,-5.879404955E-3,-2.397575416E-2,1.550024934E-2
1.620336245E1,1.794363745E-2,-2.428117767E-2,1.305686031E-2
1.622217104E1,3.138227761E-2,-1.756185852E-2,1.275143679E-2
1.624097969E1,3.168770298E-2,-2.397575416E-2,1.580567285E-2
1.625978829E1,2.496838197E-2,-3.222219273E-2,2.405211143E-2
1.627859688E1,1.672194339E-2,-2.428117767E-2,3.229855001E-2
1.629740552E1,4.810422193E-3,1.236965694E-2,3.229855001E-2
1.631621412E1,2.977880416E-3,3.955236077E-2,3.107685409E-2
1.633502271E1,1.488940232E-2,2.122694254E-2,3.443651274E-2
1.635383130E1,1.885990985E-2,-9.009997360E-3,3.321481869E-2
1.637263990E1,1.275143679E-2,-1.695101149E-2,2.496838197E-2
1.639144854E1,2.061609412E-3,-4.581354442E-4,1.885990985E-2
1.641025714E1,-3.130592173E-3,1.298050396E-2,1.488940232E-2
1.642906573E1,6.642963737E-3,4.734066315E-3,1.733279042E-2
1.644787433E1,2.099787444E-2,-8.399149403E-3,2.374668792E-2
1.646668297E1,3.290939704E-2,-9.315420873E-3,2.069245093E-2
1.648549157E1,3.443651274E-2,-8.399149403E-3,2.008160390E-2
1.650430016E1,2.130329795E-2,-3.512371797E-3,2.435753495E-2
1.652310875E1,1.091889478E-2,4.123218823E-3,2.680092305E-2
1.654191740E1,7.559234742E-3,1.175880991E-2,2.435753495E-2
1.656072599E1,1.427855436E-2,1.374406274E-3,2.374668792E-2
1.657953459E1,1.885990985E-2,-1.389677543E-2,2.496838197E-2
1.659834318E1,2.160872146E-2,-7.177455351E-3,2.008160390E-2
1.661715183E1,2.160872146E-2,1.206423342E-2,1.275143679E-2
1.663596042E1,1.824906096E-2,5.039489828E-3,1.122431830E-2
1.665476901E1,1.885990985E-2,-2.672456764E-2,1.641651988E-2
1.667357761E1,2.130329795E-2,-3.344388679E-2,2.221956849E-2
1.669238625E1,2.863346599E-2,-8.704573847E-3,2.374668792E-2
1.671119485E1,3.046600707E-2,2.122694254E-2,1.947075687E-2
1.673000344E1,1.855448633E-2,3.894151375E-2,6.032116711E-3
1.674881204E1,-2.519744914E-3,3.985778242E-2,-2.825168660E-3
1.676762068E1,-1.168245357E-2,2.550287358E-2,-6.795675959E-3
1.678642927E1,-1.015533600E-2,1.786728203E-2,-5.268557463E-3
1.680523787E1,-2.023431472E-2,3.771981969E-2,-7.406522986E-3
1.682404646E1,-2.909160033E-2,6.337540597E-2,-8.933641016E-3
1.684285511E1,-2.298312820E-2,5.482354015E-2,-3.741439432E-3
1.686166370E1,-4.963133950E-3,1.481304597E-2,5.421269219E-3
1.688047230E1,1.000262424E-2,-5.955760833E-3,6.337540224E-3
1.689928089E1,1.366770733E-2,6.566607859E-3,5.344913807E-4
1.691808954E1,1.183516532E-2,2.153236605E-2,-6.184828468E-3
1.693689813E1,1.122431830E-2,2.336490713E-2,-9.849912487E-3
1.695570672E1,1.427855436E-2,1.572931744E-2,-1.015533600E-2
1.697451532E1,2.588465251E-2,1.679830020E-3,-2.214321401E-3
1.699332396E1,3.504735976E-2,-2.901524538E-3,7.559234742E-3
1.701213256E1,3.168770298E-2,1.542389300E-2,9.391776286E-3
1.703094115E1,2.252499200E-2,4.657710344E-2,9.697199799E-3
1.704974974E1,2.588465251E-2,6.062658876E-2,4.504998680E-3
1.706855834E1,1.824906096E-2,5.329642445E-2,3.894151188E-3
1.708736698E1,4.810422193E-3,5.115845799E-2,5.726693198E-3
1.710617558E1,1.152974181E-2,5.665608495E-2,1.450762269E-3
1.712498417E1,1.763821393E-2,6.642963737E-2,-2.214321401E-3
1.714379276E1,3.894151188E-3,7.437065244E-2,-2.825168660E-3
1.716260141E1,-6.184828468E-3,7.040014863E-2,-2.519744914E-3
1.718141000E1,-6.490251981E-3,5.757235363E-2,-9.926267667E-4
1.720021860E1,-2.825168660E-3,4.932591692E-2,-2.214321401E-3
1.721902719E1,1.000262424E-2,5.329642445E-2,-1.908897655E-3
1.723783584E1,1.855448633E-2,6.001574174E-2,-3.130592173E-3
1.725664443E1,1.122431830E-2,5.390727147E-2,-6.490251981E-3
1.727545302E1,7.253811229E-3,3.130592033E-2,-9.544488043E-3
1.729426162E1,1.214058883E-2,1.572931744E-2,-1.595838554E-2
1.731307026E1,1.916533336E-2,1.572931744E-2,-1.718007959E-2
1.733187886E1,1.855448633E-2,2.214321308E-2,-7.711946499E-3
1.735068745E1,6.337540224E-3,3.130592033E-2,-5.573981442E-3
1.736949604E1,-7.101099472E-3,3.833066672E-2,-5.268557463E-3
1.738830469E1,-1.229330152E-2,4.474456236E-2,-6.184828468E-3
1.740711328E1,-1.473669056E-2,5.238015205E-2,-6.184828468E-3
1.742592188E1,-9.239064530E-3,4.474456236E-2,-1.015533600E-2
1.744473047E1,5.726693198E-3,9.315420873E-3,-1.412584260E-2
1.746353912E1,1.244601328E-2,-2.855710872E-2,-1.259872504E-2
1.748234771E1,-1.603474026E-3,-2.000524849E-2,-1.259872504E-2
1.750115631E1,-9.239064530E-3,1.847812906E-2,-1.534753758E-2
1.751996490E1,3.588727675E-3,1.847812906E-2,-1.290414855E-2
1.753877349E1,1.519482583E-2,-1.695101149E-2,-1.259872504E-2
1.755758214E1,2.977880416E-3,-3.833066672E-2,-1.259872504E-2
1.757639073E1,3.894151188E-3,-3.069507517E-2,-1.076618303E-2
1.759519933E1,1.580567285E-2,-9.315420873E-3,-4.963133950E-3
1.761400792E1,1.763821393E-2,1.236965694E-2,-2.519744914E-3
1.763281657E1,2.252499200E-2,2.092151903E-2,-2.825168660E-3
1.765162516E1,3.107685409E-2,-7.635590737E-4,-6.872031372E-4
1.767043375E1,2.496838197E-2,-2.275406010E-2,5.115845706E-3
1.768924235E1,1.145338640E-3,4.734066315E-3,7.864658721E-3
1.770805099E1,-4.046862945E-3,4.871506989E-2,-3.817795368E-4
1.772685959E1,1.641651988E-2,4.718795046E-2,-4.963133950E-3
1.774566818E1,2.038702741E-2,1.481304597E-2,-6.184828468E-3
1.776447677E1,8.170082234E-3,1.527118147E-4,-6.795675959E-3
1.778328537E1,1.183516532E-2,7.635590737E-4,-4.352286924E-3
1.780209401E1,1.794363745E-2,7.482878864E-3,-7.635590737E-5
1.782090261E1,4.810422193E-3,2.733541466E-2,-4.046862945E-3
1.783971120E1,-3.741439432E-3,4.535540938E-2,-5.879404955E-3
1.785851985E1,8.780929260E-3,3.741439432E-2,8.399150101E-4
1.787732844E1,8.475505747E-3,2.855710872E-2,6.948387716E-3
1.789613704E1,-1.718007959E-2,5.573981255E-2,9.697199799E-3
1.791494563E1,-2.328855172E-2,7.956285775E-2,1.152974181E-2
1.793375422E1,-5.268557463E-3,6.612421572E-2,1.091889478E-2
1.795256287E1,9.391776286E-3,3.497100621E-2,1.091889478E-2
1.797137146E1,1.550024934E-2,3.313846514E-2,8.170082234E-3
1.799018006E1,1.244601328E-2,5.909947306E-2,4.810422193E-3
1.800898865E1,-1.298050396E-3,8.811471611E-2,8.399150101E-4
1.802779730E1,-8.628217503E-3,8.842013776E-2,-1.603474026E-3
1.804660589E1,-5.268557463E-3,6.245913357E-2,-7.635590737E-5
1.806541448E1,2.290677221E-4,3.955236077E-2,6.032116711E-3
1.808422308E1,-2.825168660E-3,6.032116711E-2,1.580567285E-2
1.810303172E1,-5.879404955E-3,1.021642014E-1,1.947075687E-2
1.812184032E1,-3.741439432E-3,1.159082651E-1,1.550024934E-2
1.814064891E1,-7.406522986E-3,1.033858955E-1,1.427855436E-2
1.815945750E1,-2.298312820E-2,8.628217876E-2,1.091889478E-2
1.817826615E1,-2.328855172E-2,7.620319724E-2,6.337540224E-3
1.819707474E1,-5.879404955E-3,7.742489129E-2,7.559234742E-3
1.821588334E1,1.305686031E-2,8.628217876E-2,1.244601328E-2
1.823469193E1,1.794363745E-2,8.536590636E-2,8.170082234E-3
1.825350052E1,1.122431830E-2,6.734590977E-2,1.244601328E-2
1.827230917E1,3.283303929E-3,4.932591692E-2,1.580567285E-2
1.829111776E1,1.756185899E-3,4.718795046E-2,1.824906096E-2
1.830992636E1,-1.603474026E-3,5.848862603E-2,2.008160390E-2
1.832873495E1,3.894151188E-3,5.207473040E-2,1.214058883E-2
1.834754360E1,1.458397787E-2,2.550287358E-2,1.183516532E-2
1.836635219E1,4.810422193E-3,1.878355257E-2,7.559234742E-3
1.838516078E1,-5.268557463E-3,2.916795574E-2,2.367033157E-3
1.840396938E1,-3.436015919E-3,3.100049868E-2,5.344913807E-4
1.842277802E1,-1.298050396E-3,1.572931744E-2,1.145338640E-3
1.844158662E1,-1.298050396E-3,-9.009997360E-3,6.337540224E-3
1.846039521E1,-1.908897655E-3,-1.695101149E-2,1.244601328E-2
1.847920380E1,-9.926267667E-4,7.635590737E-4,1.488940232E-2
1.849801240E1,1.145338640E-3,1.481304597E-2,9.697199799E-3
1.851682104E1,-4.963133950E-3,1.664558798E-2,2.367033157E-3
1.853562964E1,-8.017370477E-3,1.542389300E-2,-3.130592173E-3
1.855443823E1,3.283303929E-3,1.527118147E-4,5.344913807E-4
1.857324683E1,1.030804776E-2,-2.641914412E-2,5.115845706E-3
1.859205542E1,1.397313084E-2,-4.779879749E-2,1.000262424E-2
1.861086407E1,1.366770733E-2,-4.657710344E-2,1.152974181E-2
1.862967266E1,-9.926267667E-4,-1.817270555E-2,5.421269219E-3
1.864848125E1,-6.184828468E-3,-4.428642802E-3,1.145338640E-3
1.866728985E1,5.421269219E-3,-3.100049868E-2,-4.046862945E-3
1.868609849E1,1.702736691E-2,-7.070557028E-2,-2.519744914E-3
1.870490709E1,1.519482583E-2,-7.070557028E-2,4.199574701E-3
1.872371568E1,1.366770733E-2,-2.947338112E-2,4.504998680E-3
1.874252427E1,1.855448633E-2,-8.093725890E-3,2.977880416E-3
1.876133292E1,1.152974181E-2,-3.710897267E-2,-1.298050396E-3
1.878014151E1,-1.908897655E-3,-8.536590636E-2,-4.657710437E-3
1.879895011E1,-8.933641016E-3,-9.727742523E-2,-3.741439432E-3
1.881775870E1,-1.351499557E-2,-5.696150661E-2,-1.298050396E-3
1.883656730E1,-9.544488043E-3,-1.298050396E-2,-5.573981442E-3
1.885537594E1,1.030804776E-2,-1.695101149E-2,-7.101099472E-3
1.887418454E1,1.336228382E-2,-5.024218559E-2,-4.963133950E-3
1.889299313E1,-8.322793990E-3,-6.276455522E-2,-9.239064530E-3
1.891180172E1,-1.931804419E-2,-4.932591692E-2,-1.320957206E-2
1.893061032E1,-7.711946499E-3,-3.588727489E-2,-9.849912487E-3
1.894941896E1,1.450762269E-3,-3.588727489E-2,-3.436015919E-3
1.896822756E1,9.391776286E-3,-4.993676394E-2,-1.298050396E-3
1.898703615E1,6.337540224E-3,-4.382828996E-2,-3.130592173E-3
1.900584474E1,-1.779092662E-2,-5.955760833E-3,-1.137703005E-2
1.902465339E1,-2.389939874E-2,2.428117767E-2,-1.565296017E-2
1.904346198E1,8.170082234E-3,1.084253844E-2,-1.626380906E-2
1.906227058E1,4.848600179E-2,-4.474456236E-2,-1.198787708E-2
1.908107917E1,3.413109109E-2,-6.490252167E-2,-3.741439432E-3
1.909988776E1,-1.840177365E-2,-1.206423342E-2,-5.879404955E-3
1.911869641E1,-3.947600350E-2,5.146388337E-2,-3.817795368E-4
1.913750500E1,-2.481566928E-2,7.345438004E-2,2.290677221E-4
1.915631360E1,2.367033157E-3,4.657710344E-2,-2.214321401E-3
1.917512219E1,2.374668792E-2,4.734066315E-3,-5.573981442E-3
1.919393079E1,1.977618039E-2,-9.315420873E-3,-7.406522986E-3
1.921273943E1,-2.825168660E-3,1.572931744E-2,-7.101099472E-3
1.923154802E1,-1.565296017E-2,4.932591692E-2,-7.101099472E-3
1.925035662E1,-6.184828468E-3,6.184828654E-2,-4.963133950E-3
1.926916521E1,1.122431830E-2,4.902049154E-2,-2.519744914E-3
1.928797386E1,1.488940232E-2,2.916795574E-2,1.145338640E-3
1.930678245E1,3.894151188E-3,2.367033064E-2,2.367033157E-3
1.932559104E1,-6.490251981E-3,3.771981969E-2,3.283303929E-3
1.934439964E1,-2.214321401E-3,5.421269313E-2,2.367033157E-3
1.936320823E1,8.475505747E-3,6.215370819E-2,2.290677221E-4
1.938201688E1,6.032116711E-3,6.306997687E-2,1.756185899E-3
1.940082547E1,8.399150101E-4,5.665608495E-2,4.810422193E-3
1.941963407E1,5.726693198E-3,4.046862945E-2,2.977880416E-3
1.943844266E1,8.475505747E-3,3.344388679E-2,5.115845706E-3
1.945725125E1,4.810422193E-3,4.627167806E-2,6.948387716E-3
1.947605990E1,5.421269219E-3,6.123743951E-2,6.948387716E-3
1.949486849E1,2.977880416E-3,6.184828654E-2,5.726693198E-3
1.951367709E1,-1.298050396E-3,5.054761097E-2,3.588727675E-3
1.953248568E1,-2.825168660E-3,4.107947648E-2,2.977880416E-3
1.955129433E1,-1.908897655E-3,3.741439432E-2,2.061609412E-3
1.957010292E1,-3.436015919E-3,3.619270027E-2,5.344913807E-4
1.958891151E1,-3.436015919E-3,3.069507517E-2,-7.635590737E-5
1.960772011E1,-4.046862945E-3,3.313846514E-2,-7.635590737E-5
1.962652870E1,-4.963133950E-3,4.321744293E-2,4.504998680E-3
1.964533730E1,-1.298050396E-3,4.963133857E-2,9.391776286E-3
1.966414594E1,3.283303929E-3,4.413371533E-2,1.030804776E-2
1.968295454E1,6.642963737E-3,3.588727489E-2,1.061347127E-2
1.970176313E1,1.275143679E-2,2.855710872E-2,1.244601328E-2
1.972057172E1,1.366770733E-2,3.069507517E-2,1.122431830E-2
1.973938037E1,9.086352773E-3,3.558185324E-2,1.030804776E-2
1.975818896E1,6.948387716E-3,3.100049868E-2,8.475505747E-3
1.977699756E1,7.253811229E-3,1.328592747E-2,7.864658721E-3
1.979580615E1,5.726693198E-3,-1.527118147E-4,7.559234742E-3
1.981461474E1,5.726693198E-3,3.817795310E-3,1.061347127E-2
1.983342339E1,6.337540224E-3,9.926267900E-3,1.030804776E-2
1.985223198E1,1.450762269E-3,7.177455351E-3,8.780929260E-3
1.987104058E1,-1.603474026E-3,-6.566607859E-3,8.170082234E-3
1.988984917E1,-1.298050396E-3,-1.756185852E-2,3.894151188E-3
1.990865782E1,1.756185899E-3,-1.756185852E-2,3.283303929E-3
1.992746641E1,4.199574701E-3,-1.786728203E-2,6.032116711E-3
1.994627500E1,2.061609412E-3,-1.145338640E-2,5.726693198E-3
1.996508360E1,8.399150101E-4,-6.566607859E-3,6.642963737E-3
1.998389219E1,2.672456671E-3,-1.511846948E-2,6.032116711E-3
2.000270084E1,1.450762269E-3,-1.908897609E-2,5.726693198E-3
2.002150943E1,-1.908897655E-3,-1.572931744E-2,5.115845706E-3
2.004031802E1,-7.101099472E-3,-1.114796288E-2,3.894151188E-3
2.005912662E1,-1.320957206E-2,-6.566607859E-3,3.283303929E-3
2.007793526E1,-7.406522986E-3,-8.704573847E-3,5.726693198E-3
2.009674386E1,5.115845706E-3,-8.704573847E-3,4.504998680E-3
2.011555245E1,1.450762269E-3,-7.635590737E-4,7.253811229E-3
2.013436105E1,-2.519744914E-3,-3.817795310E-3,8.475505747E-3
2.015316969E1,9.391776286E-3,-2.580829710E-2,1.000262424E-2
2.017197828E1,1.397313084E-2,-3.008422814E-2,1.122431830E-2
2.019078688E1,6.948387716E-3,-1.985253533E-3,7.864658721E-3
2.020959547E1,2.061609412E-3,1.572931744E-2,5.726693198E-3
2.022840407E1,-6.872031372E-4,-4.123218823E-3,7.253811229E-3
2.024721271E1,-3.741439432E-3,-2.794626169E-2,5.421269219E-3
2.026602131E1,-4.657710437E-3,-2.458660305E-2,6.032116711E-3
2.028482990E1,-4.046862945E-3,-2.596100792E-3,6.642963737E-3
2.030363849E1,-6.184828468E-3,9.620844387E-3,8.170082234E-3
2.032244714E1,-7.711946499E-3,-1.068982761E-3,7.559234742E-3
2.034125573E1,-9.239064530E-3,-1.847812906E-2,4.504998680E-3
2.036006433E1,-8.933641016E-3,-2.183778957E-2,4.199574701E-3
2.037887292E1,-7.101099472E-3,-9.315420873E-3,3.283303929E-3
2.039768157E1,-4.046862945E-3,3.206948051E-3,6.337540224E-3
2.041649016E1,-5.573981442E-3,5.955760833E-3,4.504998680E-3
2.043529875E1,-7.711946499E-3,-4.581354442E-4,3.588727675E-3
2.045410735E1,-7.101099472E-3,-8.093725890E-3,5.115845706E-3
2.047291599E1,-4.963133950E-3,-3.206948051E-3,6.032116711E-3
2.049172459E1,-6.872031372E-4,9.620844387E-3,1.366770733E-2
2.051053318E1,2.367033157E-3,1.328592747E-2,1.183516532E-2
2.052934177E1,-7.635590737E-5,3.206948051E-3,9.697199799E-3
2.054815042E1,-3.130592173E-3,-4.581354442E-4,6.032116711E-3
2.056695901E1,-9.926267667E-4,7.177455351E-3,2.977880416E-3
2.058576761E1,-2.825168660E-3,1.878355257E-2,4.810422193E-3
2.060457620E1,-6.490251981E-3,2.550287358E-2,8.780929260E-3
2.062338485E1,-5.879404955E-3,9.926267900E-3,1.519482583E-2
2.064219344E1,-1.107160654E-2,-9.620844387E-3,1.488940232E-2
2.066100204E1,-1.687465608E-2,-5.650337320E-3,1.061347127E-2
2.067981068E1,-9.849912487E-3,7.482878864E-3,4.810422193E-3
2.069861927E1,3.588727675E-3,6.872031838E-3,2.290677221E-4
2.071742787E1,8.170082234E-3,1.985253533E-3,1.145338640E-3
2.073623646E1,2.672456671E-3,-5.344913341E-3,2.672456671E-3
2.075504506E1,-8.322793990E-3,-1.298050396E-2,5.726693198E-3
2.077385370E1,-1.656923257E-2,-1.068982761E-3,5.726693198E-3
2.079266230E1,-1.076618303E-2,2.122694254E-2,1.030804776E-2
2.081147089E1,-1.908897655E-3,3.069507517E-2,1.214058883E-2
2.083027954E1,-1.046075951E-2,2.397575416E-2,8.780929260E-3
2.084908813E1,-2.573194169E-2,1.053711493E-2,9.086352773E-3
2.086789672E1,-1.443126611E-2,-1.389677543E-2,5.726693198E-3
2.088670532E1,4.810422193E-3,-2.977880463E-2,3.894151188E-3
2.090551396E1,5.115845706E-3,-1.084253844E-2,3.588727675E-3
2.092432256E1,5.344913807E-4,2.275406010E-2,1.145338640E-3
2.094313115E1,-6.872031372E-4,2.458660305E-2,4.810422193E-3
2.096193974E1,-4.963133950E-3,-9.315420873E-3,9.391776286E-3
2.098074839E1,-1.198787708E-2,-3.038965166E-2,1.091889478E-2
2.099955698E1,-1.290414855E-2,-1.481304597E-2,1.061347127E-2
2.101836558E1,-9.544488043E-3,1.328592747E-2,8.780929260E-3
2.103717422E1,-4.657710437E-3,1.908897609E-2,7.864658721E-3
2.105598282E1,-5.268557463E-3,-1.068982761E-3,4.504998680E-3
2.107479141E1,-1.046075951E-2,-2.428117767E-2,2.367033157E-3
2.109360000E1,-1.351499557E-2,-3.252761811E-2,3.894151188E-3
2.111240865E1,-1.046075951E-2,-1.786728203E-2,4.199574701E-3
2.113121724E1,-6.490251981E-3,4.734066315E-3,5.115845706E-3
2.115002584E1,-1.298050396E-3,7.482878864E-3,6.642963737E-3
2.116883443E1,-1.908897655E-3,-5.344913341E-3,6.032116711E-3
2.118764308E1,-6.490251981E-3,-1.450762246E-2,7.864658721E-3
2.120645167E1,-8.933641016E-3,-1.114796288E-2,8.780929260E-3
2.122526026E1,-1.107160654E-2,1.527118147E-4,7.253811229E-3
2.124406886E1,-1.046075951E-2,1.267508045E-2,6.948387716E-3
2.126287750E1,-5.268557463E-3,9.926267900E-3,6.337540224E-3
2.128168610E1,-1.603474026E-3,-5.344913341E-3,7.559234742E-3
2.130049469E1,-3.741439432E-3,-9.620844387E-3,7.864658721E-3
2.131930334E1,-8.933641016E-3,-4.581354442E-4,6.642963737E-3
2.133811193E1,-1.320957206E-2,1.145338640E-2,5.421269219E-3
2.135692052E1,-1.504211407E-2,1.664558798E-2,4.810422193E-3
2.137572912E1,-1.656923257E-2,9.315420873E-3,3.894151188E-3
2.139453776E1,-1.320957206E-2,-1.068982761E-3,4.504998680E-3
2.141334636E1,-8.933641016E-3,-4.581354442E-4,6.337540224E-3
2.143215495E1,-8.322793990E-3,1.084253844E-2,8.780929260E-3
2.145096360E1,-9.849912487E-3,1.359135192E-2,8.170082234E-3
2.146977219E1,-1.198787708E-2,1.053711493E-2,5.115845706E-3
2.148858078E1,-1.473669056E-2,1.023169141E-2,3.283303929E-3
2.150738943E1,-1.229330152E-2,1.572931744E-2,5.726693198E-3
2.152619802E1,-2.825168660E-3,1.695101149E-2,1.030804776E-2
2.154500662E1,-2.519744914E-3,1.389677543E-2,1.214058883E-2
2.156381521E1,-1.779092662E-2,1.786728203E-2,1.030804776E-2
2.158262386E1,-1.870719716E-2,1.236965694E-2,8.780929260E-3
2.160143245E1,1.145338640E-3,-1.985253533E-3,5.421269219E-3
2.162024104E1,6.642963737E-3,4.123218823E-3,7.559234742E-3
2.163904964E1,-1.298050396E-3,2.550287358E-2,7.864658721E-3
2.165785828E1,-1.107160654E-2,2.855710872E-2,5.726693198E-3
2.167666688E1,-1.901262067E-2,3.512371797E-3,5.726693198E-3
2.169547547E1,-1.687465608E-2,-2.183778957E-2,3.894151188E-3
2.171428412E1,-1.351499557E-2,-1.053711493E-2,-6.872031372E-4
2.173309271E1,-1.046075951E-2,2.061609551E-2,-2.214321401E-3
2.175190130E1,-5.573981442E-3,2.977880463E-2,2.672456671E-3
2.177070990E1,-7.101099472E-3,1.878355257E-2,7.253811229E-3
2.178951854E1,-1.412584260E-2,9.315420873E-3,1.244601328E-2
2.180832714E1,-1.443126611E-2,6.261184346E-3,1.458397787E-2
2.182713573E1,-1.107160654E-2,1.267508045E-2,1.336228382E-2
2.184594438E1,-7.406522986E-3,2.367033064E-2,1.183516532E-2
2.186475297E1,-2.519744914E-3,2.794626169E-2,9.697199799E-3
2.188356157E1,-1.603474026E-3,2.916795574E-2,8.780929260E-3
2.190237021E1,-3.130592173E-3,2.428117767E-2,7.559234742E-3
2.192117880E1,-7.406522986E-3,1.328592747E-2,8.170082234E-3
2.193998740E1,-1.137703005E-2,8.093725890E-3,6.948387716E-3
2.195879599E1,-1.259872504E-2,1.175880991E-2,7.559234742E-3
2.197760464E1,-1.259872504E-2,2.000524849E-2,7.864658721E-3
2.199641323E1,-1.351499557E-2,2.458660305E-2,7.253811229E-3
2.201522183E1,-1.626380906E-2,2.519745007E-2,9.086352773E-3
2.203403047E1,-1.595838554E-2,1.969982497E-2,8.170082234E-3
2.205283907E1,-1.198787708E-2,6.566607859E-3,7.253811229E-3
2.207164766E1,-6.795675959E-3,-2.290677279E-3,8.170082234E-3
2.209045625E1,-2.825168660E-3,1.985253533E-3,8.475505747E-3
2.210926490E1,-9.926267667E-4,1.328592747E-2,8.170082234E-3
2.212807349E1,-3.436015919E-3,2.122694254E-2,9.086352773E-3
2.214688209E1,-5.879404955E-3,1.481304597E-2,9.391776286E-3
2.216569073E1,-5.573981442E-3,-4.428642802E-3,9.086352773E-3
2.218449933E1,-7.101099472E-3,-1.114796288E-2,9.086352773E-3
2.220330792E1,-7.101099472E-3,5.039489828E-3,1.122431830E-2
2.222211657E1,-1.908897655E-3,2.367033064E-2,1.336228382E-2
2.224092516E1,2.061609412E-3,1.969982497E-2,1.336228382E-2
2.225973375E1,-5.268557463E-3,5.650337320E-3,1.061347127E-2
2.227854235E1,-1.687465608E-2,-1.679830020E-3,1.061347127E-2
2.229735099E1,-8.628217503E-3,-9.009997360E-3,1.091889478E-2
2.231615959E1,1.000262424E-2,-1.175880991E-2,1.275143679E-2
2.233496818E1,1.152974181E-2,7.635590737E-4,1.336228382E-2
2.235377683E1,2.290677221E-4,1.969982497E-2,1.091889478E-2
2.237258542E1,-7.406522986E-3,1.542389300E-2,1.000262424E-2
2.239139401E1,-4.657710437E-3,-1.389677543E-2,1.030804776E-2
2.241020261E1,-9.926267667E-4,-2.611372061E-2,8.475505747E-3
2.242901125E1,8.399150101E-4,-7.177455351E-3,7.253811229E-3
2.244781985E1,8.399150101E-4,1.389677543E-2,8.475505747E-3
2.246662844E1,5.344913807E-4,1.236965694E-2,1.244601328E-2
2.248543709E1,-2.825168660E-3,-7.635590737E-4,1.458397787E-2
2.250424568E1,-1.320957206E-2,-7.635590737E-4,1.152974181E-2
2.252305427E1,-1.351499557E-2,2.290677279E-3,7.864658721E-3
2.254186292E1,-3.741439432E-3,1.527118147E-4,7.559234742E-3
2.256067151E1,6.642963737E-3,-2.901524538E-3,1.091889478E-2
2.257948011E1,1.030804776E-2,2.290677279E-3,1.214058883E-2
2.259828870E1,9.391776286E-3,9.926267900E-3,1.336228382E-2
2.261709735E1,6.642963737E-3,9.926267900E-3,1.366770733E-2
2.263590594E1,3.588727675E-3,7.788302377E-3,1.336228382E-2
2.265471454E1,3.588727675E-3,9.009997360E-3,1.305686031E-2
2.267352318E1,4.810422193E-3,1.084253844E-2,1.122431830E-2
2.269233177E1,2.977880416E-3,7.177455351E-3,1.122431830E-2
2.271114037E1,2.290677221E-4,5.955760833E-3,1.152974181E-2
2.272994896E1,-6.872031372E-4,9.620844387E-3,1.000262424E-2
2.274875761E1,1.756185899E-3,1.175880991E-2,9.086352773E-3
2.276756620E1,8.399150101E-4,7.788302377E-3,7.864658721E-3
2.278637480E1,-2.214321401E-3,1.679830020E-3,7.864658721E-3
2.280518344E1,-1.908897655E-3,-5.344913341E-3,7.864658721E-3
2.282399204E1,-1.603474026E-3,-2.596100792E-3,7.253811229E-3
2.284280063E1,5.344913807E-4,6.872031838E-3,7.864658721E-3
2.286160922E1,2.672456671E-3,9.620844387E-3,1.061347127E-2
2.288041787E1,2.977880416E-3,7.177455351E-3,1.091889478E-2
2.289922646E1,-2.214321401E-3,2.596100792E-3,9.086352773E-3
2.291803506E1,-9.239064530E-3,7.177455351E-3,5.726693198E-3
2.293684370E1,-5.573981442E-3,1.206423342E-2,6.642963737E-3
2.295565230E1,5.115845706E-3,7.788302377E-3,1.091889478E-2
2.297446089E1,6.642963737E-3,4.581354442E-4,1.152974181E-2
2.299326948E1,-8.322793990E-3,6.872031838E-3,9.086352773E-3
2.301207813E1,-1.656923257E-2,1.236965694E-2,7.864658721E-3
2.303088672E1,2.061609412E-3,-7.177455351E-3,1.000262424E-2
2.304969532E1,1.947075687E-2,-1.878355257E-2,1.305686031E-2
2.306850391E1,1.733279042E-2,-6.872031838E-3,1.366770733E-2
2.308731256E1,7.559234742E-3,6.872031838E-3,1.000262424E-2
2.310612115E1,-5.268557463E-3,7.635590737E-4,6.948387716E-3
2.312492974E1,-1.076618303E-2,-1.511846948E-2,5.115845706E-3
2.314373839E1,-8.933641016E-3,-1.481304597E-2,1.450762269E-3
2.316254698E1,-2.214321401E-3,-8.399149403E-3,1.450762269E-3
2.318135558E1,2.367033157E-3,-7.788302377E-3,6.337540224E-3
2.320016417E1,-1.603474026E-3,-5.344913341E-3,1.030804776E-2
2.321897282E1,-1.168245357E-2,7.788302377E-3,1.000262424E-2
2.323778141E1,-1.534753758E-2,1.023169141E-2,9.086352773E-3
2.325659000E1,-9.544488043E-3,-5.039489828E-3,7.864658721E-3
2.327539865E1,-9.926267667E-4,-1.389677543E-2,6.337540224E-3
2.329420724E1,8.475505747E-3,-8.704573847E-3,6.337540224E-3
2.331301584E1,1.030804776E-2,-2.596100792E-3,7.559234742E-3
2.333182443E1,3.588727675E-3,7.635590737E-4,8.170082234E-3
2.335063308E1,-1.298050396E-3,2.596100792E-3,6.948387716E-3
2.336944167E1,-2.519744914E-3,5.039489828E-3,6.948387716E-3
2.338825026E1,-6.184828468E-3,9.926267900E-3,7.559234742E-3
2.340705891E1,-1.015533600E-2,1.634016447E-2,7.253811229E-3
2.342586750E1,-8.628217503E-3,1.389677543E-2,6.948387716E-3
2.344467610E1,-2.519744914E-3,1.374406274E-3,7.559234742E-3
2.346348469E1,2.977880416E-3,-1.679830020E-3,8.475505747E-3
2.348229334E1,3.588727675E-3,7.788302377E-3,7.864658721E-3
2.350110193E1,-6.872031372E-4,2.183778957E-2,6.642963737E-3
2.351991052E1,-3.436015919E-3,2.550287358E-2,5.726693198E-3
2.353871917E1,-1.603474026E-3,1.298050396E-2,8.170082234E-3
2.355752776E1,-3.817795368E-4,1.679830020E-3,1.061347127E-2
2.357633636E1,8.399150101E-4,4.734066315E-3,1.091889478E-2
2.359514495E1,1.756185899E-3,1.511846948E-2,1.152974181E-2
2.361395360E1,5.344913807E-4,2.153236605E-2,8.170082234E-3
2.363276219E1,-6.872031372E-4,1.572931744E-2,6.337540224E-3
2.365157078E1,-4.046862945E-3,8.704573847E-3,5.115845706E-3
2.367037938E1,-4.963133950E-3,1.114796288E-2,5.726693198E-3
2.368918802E1,2.672456671E-3,1.786728203E-2,1.152974181E-2
2.370799662E1,7.559234742E-3,1.847812906E-2,1.305686031E-2
2.372680521E1,-4.352286924E-3,1.420219894E-2,1.183516532E-2
2.374561380E1,-1.443126611E-2,5.650337320E-3,1.183516532E-2
2.376442245E1,8.399150101E-4,-8.093725890E-3,1.030804776E-2
2.378323104E1,1.611109637E-2,-5.650337320E-3,1.030804776E-2
2.380203964E1,1.244601328E-2,1.542389300E-2,1.000262424E-2
2.382084828E1,8.170082234E-3,2.305948362E-2,1.000262424E-2
2.383965688E1,5.726693198E-3,3.206948051E-3,1.061347127E-2
2.385846547E1,1.756185899E-3,-1.847812906E-2,1.183516532E-2
2.387727407E1,-4.657710437E-3,-9.009997360E-3,1.000262424E-2
2.389608271E1,-5.879404955E-3,1.572931744E-2,8.780929260E-3
2.391489130E1,-1.908897655E-3,1.695101149E-2,1.061347127E-2
2.393369990E1,5.344913807E-4,-8.093725890E-3,1.000262424E-2
2.395250849E1,-2.825168660E-3,-2.611372061E-2,1.000262424E-2
2.397131714E1,-8.933641016E-3,-1.206423342E-2,6.642963737E-3
2.399012573E1,-4.657710437E-3,5.039489828E-3,6.032116711E-3
2.400893433E1,8.399150101E-4,7.788302377E-3,7.253811229E-3
2.402774292E1,6.032116711E-3,-4.428642802E-3,1.030804776E-2
2.404655157E1,6.948387716E-3,-6.566607859E-3,1.366770733E-2
2.406536016E1,5.726693198E-3,4.123218823E-3,1.458397787E-2
2.408416875E1,2.367033157E-3,8.704573847E-3,1.550024934E-2
2.410297740E1,2.061609412E-3,6.872031838E-3,1.458397787E-2
2.412178599E1,5.421269219E-3,3.512371797E-3,1.183516532E-2
2.414059459E1,3.588727675E-3,7.482878864E-3,7.559234742E-3
2.415940318E1,5.344913807E-4,1.206423342E-2,1.000262424E-2
2.417821183E1,2.290677221E-4,8.704573847E-3,1.152974181E-2
2.419702042E1,-7.635590737E-5,2.290677279E-3,1.336228382E-2
2.421582901E1,-1.603474026E-3,3.206948051E-3,1.244601328E-2
2.423463761E1,-1.908897655E-3,7.788302377E-3,1.000262424E-2
2.425344625E1,2.290677221E-4,4.123218823E-3,1.000262424E-2
2.427225485E1,2.672456671E-3,3.817795310E-3,9.391776286E-3
2.429106344E1,4.810422193E-3,1.084253844E-2,1.030804776E-2
2.430987204E1,3.894151188E-3,1.298050396E-2,1.244601328E-2
2.432868068E1,2.672456671E-3,1.206423342E-2,1.275143679E-2
2.434748927E1,4.199574701E-3,1.145338640E-2,1.366770733E-2
2.436629787E1,6.948387716E-3,5.344913341E-3,1.488940232E-2
2.438510646E1,2.290677221E-4,6.261184346E-3,1.275143679E-2
2.440391511E1,-3.130592173E-3,1.267508045E-2,1.030804776E-2
2.442272370E1,6.032116711E-3,9.620844387E-3,1.061347127E-2
2.444153230E1,8.780929260E-3,6.261184346E-3,9.697199799E-3
2.446034089E1,-8.017370477E-3,1.267508045E-2,9.697199799E-3
2.447914954E1,-1.168245357E-2,6.566607859E-3,1.061347127E-2
2.449795813E1,7.253811229E-3,-1.572931744E-2,1.244601328E-2
2.451676672E1,1.580567285E-2,-2.092151903E-2,1.275143679E-2
2.453557532E1,8.780929260E-3,7.177455351E-3,1.152974181E-2
2.455438396E1,3.588727675E-3,3.069507517E-2,1.122431830E-2
2.457319256E1,3.283303929E-3,1.175880991E-2,1.000262424E-2
2.459200115E1,3.588727675E-3,-2.092151903E-2,7.253811229E-3
2.461080974E1,2.367033157E-3,-2.122694254E-2,9.086352773E-3
2.462961839E1,2.977880416E-3,7.177455351E-3,1.122431830E-2
2.464842698E1,1.145338640E-3,2.061609551E-2,1.397313084E-2
2.466723558E1,-6.872031372E-4,6.872031838E-3,1.183516532E-2
2.468604417E1,-5.573981442E-3,-4.428642802E-3,8.170082234E-3
2.470485282E1,-4.963133950E-3,-1.236965694E-2,7.864658721E-3
2.472366141E1,2.367033157E-3,-1.725643501E-2,1.030804776E-2
2.474247000E1,4.810422193E-3,-3.206948051E-3,1.183516532E-2
2.476127860E1,8.399150101E-4,1.664558798E-2,1.000262424E-2
2.478008724E1,-5.268557463E-3,2.886253223E-2,7.559234742E-3
2.479889584E1,-2.519744914E-3,1.542389300E-2,1.000262424E-2
2.481770443E1,3.894151188E-3,-7.177455351E-3,1.336228382E-2
2.483651302E1,5.115845706E-3,-1.359135192E-2,1.397313084E-2
2.485532167E1,1.756185899E-3,-2.596100792E-3,1.305686031E-2
2.487413026E1,-3.817795368E-4,1.603474095E-2,8.780929260E-3
2.489293886E1,2.061609412E-3,2.489202656E-2,7.864658721E-3
2.491174745E1,6.337540224E-3,1.725643501E-2,8.475505747E-3
2.493055605E1,7.559234742E-3,4.123218823E-3,1.061347127E-2
2.494936469E1,4.810422193E-3,-2.901524538E-3,1.336228382E-2
2.496817329E1,1.450762269E-3,1.374406274E-3,1.336228382E-2
2.498698188E1,8.399150101E-4,9.620844387E-3,1.458397787E-2
2.500579047E1,1.756185899E-3,1.695101149E-2,1.152974181E-2
2.502459912E1,3.894151188E-3,1.298050396E-2,9.391776286E-3
2.504340771E1,5.421269219E-3,1.985253533E-3,7.253811229E-3
2.506221631E1,5.115845706E-3,-2.290677279E-3,8.780929260E-3
2.508102490E1,2.977880416E-3,1.527118147E-4,8.475505747E-3
2.509983355E1,-6.872031372E-4,3.512371797E-3,1.000262424E-2
2.511864214E1,-4.352286924E-3,1.206423342E-2,1.061347127E-2
2.513745073E1,-1.908897655E-3,2.214321308E-2,1.091889478E-2
2.515625933E1,3.894151188E-3,1.756185852E-2,1.061347127E-2
2.517506797E1,-1.603474026E-3,8.093725890E-3,9.391776286E-3
2.519387657E1,-1.259872504E-2,3.206948051E-3,1.061347127E-2
2.521268516E1,-7.101099472E-3,1.527118147E-4,1.152974181E-2
2.523149375E1,1.000262424E-2,-4.734066315E-3,1.061347127E-2
2.525030235E1,1.580567285E-2,-1.374406274E-3,9.697199799E-3
2.526911099E1,9.697199799E-3,1.267508045E-2,7.559234742E-3
2.528791959E1,4.810422193E-3,1.542389300E-2,1.000262424E-2
2.530672818E1,2.367033157E-3,-3.817795310E-3,9.391776286E-3
2.532553677E1,1.756185899E-3,-2.000524849E-2,8.170082234E-3
2.534434542E1,-6.872031372E-4,-1.267508045E-2,6.948387716E-3
2.536315401E1,-9.926267667E-4,1.236965694E-2,8.170082234E-3
2.538196261E1,3.588727675E-3,2.092151903E-2,1.244601328E-2
2.540077120E1,5.726693198E-3,4.428642802E-3,1.122431830E-2
2.541957980E1,-9.926267667E-4,-1.084253844E-2,6.642963737E-3
2.543838844E1,-5.268557463E-3,-1.878355257E-2,6.337540224E-3
2.545719704E1,-1.908897655E-3,-9.009997360E-3,5.115845706E-3
2.547600563E1,4.504998680E-3,8.093725890E-3,8.780929260E-3
2.549481422E1,5.421269219E-3,1.603474095E-2,1.000262424E-2
2.551362287E1,2.290677221E-4,1.420219894E-2,7.559234742E-3
2.553243146E1,-4.046862945E-3,-1.374406274E-3,7.864658721E-3
2.555124006E1,-5.879404955E-3,-1.328592747E-2,6.337540224E-3
2.557004865E1,-3.130592173E-3,-4.123218823E-3,7.253811229E-3
2.558885724E1,3.283303929E-3,1.542389300E-2,6.948387716E-3
2.560766584E1,7.253811229E-3,2.367033064E-2,9.391776286E-3
2.562647448E1,8.475505747E-3,1.756185852E-2,1.275143679E-2
2.564528308E1,5.115845706E-3,1.175880991E-2,1.580567285E-2
2.566409167E1,1.145338640E-3,2.290677279E-3,1.580567285E-2
2.568290026E1,-3.130592173E-3,-2.596100792E-3,7.559234742E-3
2.570170891E1,-8.017370477E-3,-2.596100792E-3,-6.872031372E-4
2.572051750E1,-7.406522986E-3,-4.428642802E-3,2.290677221E-4
2.573932610E1,-4.352286924E-3,-9.620844387E-3,2.290677221E-4
2.575813469E1,-2.519744914E-3,-1.206423342E-2,4.810422193E-3
2.577694334E1,-3.741439432E-3,-6.566607859E-3,8.780929260E-3
2.579575193E1,-5.879404955E-3,7.635590737E-4,1.000262424E-2
2.581456052E1,-7.101099472E-3,1.374406274E-3,8.780929260E-3
2.583336912E1,-9.849912487E-3,-1.374406274E-3,6.337540224E-3
2.585217771E1,-8.933641016E-3,2.596100792E-3,6.032116711E-3
2.587098631E1,4.504998680E-3,5.344913341E-3,7.864658721E-3
2.588979495E1,1.091889478E-2,8.093725890E-3,9.086352773E-3
2.590860355E1,2.290677221E-4,1.267508045E-2,1.183516532E-2
2.592741214E1,-1.107160654E-2,1.359135192E-2,1.030804776E-2
2.594622073E1,-1.603474026E-3,1.527118147E-4,1.183516532E-2
2.596502933E1,5.726693198E-3,-4.428642802E-3,1.152974181E-2
2.598383797E1,2.290677221E-4,9.315420873E-3,1.000262424E-2
2.600264657E1,-6.872031372E-4,1.695101149E-2,1.030804776E-2
2.602145516E1,2.290677221E-4,5.039489828E-3,1.000262424E-2
2.604026375E1,-4.963133950E-3,-5.344913341E-3,8.170082234E-3
2.605907235E1,-1.015533600E-2,4.581354442E-4,5.421269219E-3
2.607788099E1,-9.239064530E-3,1.023169141E-2,2.061609412E-3
2.609668959E1,-2.214321401E-3,7.177455351E-3,4.504998680E-3
2.611549818E1,2.977880416E-3,-5.955760833E-3,8.170082234E-3
2.613430677E1,-4.657710437E-3,-3.512371797E-3,8.475505747E-3
2.615311537E1,-1.351499557E-2,8.704573847E-3,9.697199799E-3
2.617192401E1,-1.137703005E-2,1.817270555E-2,1.183516532E-2
2.619073261E1,-2.519744914E-3,1.969982497E-2,1.244601328E-2
2.620954120E1,3.894151188E-3,1.145338640E-2,9.391776286E-3
2.622834980E1,7.864658721E-3,1.679830020E-3,8.170082234E-3
2.624715839E1,6.642963737E-3,-1.527118147E-4,8.475505747E-3
2.626596698E1,-1.298050396E-3,7.482878864E-3,1.061347127E-2
2.628477563E1,-1.076618303E-2,1.847812906E-2,1.091889478E-2
2.630358422E1,-1.137703005E-2,1.756185852E-2,8.475505747E-3
2.632239282E1,-5.879404955E-3,4.123218823E-3,5.421269219E-3
2.634120141E1,2.290677221E-4,-2.290677279E-3,6.948387716E-3
2.636001006E1,2.367033157E-3,4.734066315E-3,1.061347127E-2
2.637881865E1,-3.741439432E-3,1.542389300E-2,1.030804776E-2
2.639762724E1,-9.239064530E-3,1.145338640E-2,1.000262424E-2
2.641643584E1,-8.933641016E-3,-5.039489828E-3,9.697199799E-3
2.643524443E1,-2.214321401E-3,-8.704573847E-3,9.391776286E-3
2.645405302E1,3.894151188E-3,1.374406274E-3,7.253811229E-3
2.647286162E1,3.588727675E-3,7.788302377E-3,8.780929260E-3
2.649167026E1,-1.603474026E-3,7.788302377E-3,9.391776286E-3
2.651047886E1,-4.352286924E-3,-4.581354442E-4,9.697199799E-3
2.652928745E1,-8.322793990E-3,-5.955760833E-3,8.780929260E-3
2.654809604E1,-1.290414855E-2,8.704573847E-3,8.170082234E-3
2.656690464E1,-4.963133950E-3,2.061609551E-2,1.305686031E-2
2.658571323E1,3.894151188E-3,1.053711493E-2,1.214058883E-2
2.660452188E1,-3.436015919E-3,-2.596100792E-3,1.061347127E-2
2.662333047E1,-1.870719716E-2,-1.068982761E-3,6.337540224E-3
2.664213907E1,-1.229330152E-2,-4.123218823E-3,5.115845706E-3
2.666094766E1,6.948387716E-3,-1.389677543E-2,9.086352773E-3
2.667975625E1,4.504998680E-3,-1.374406274E-3,7.559234742E-3
2.669856490E1,-9.239064530E-3,2.336490713E-2,8.475505747E-3
2.671737349E1,-1.473669056E-2,2.214321308E-2,8.780929260E-3
2.673618209E1,-1.168245357E-2,-6.261184346E-3,1.122431830E-2
2.675499068E1,-6.184828468E-3,-2.336490713E-2,1.000262424E-2
2.677379927E1,-6.490251981E-3,-1.328592747E-2,6.032116711E-3
2.679260787E1,-8.628217503E-3,8.704573847E-3,5.726693198E-3
2.681141651E1,-6.490251981E-3,1.359135192E-2,5.421269219E-3
2.683022511E1,-3.436015919E-3,-2.901524538E-3,5.726693198E-3
2.684903370E1,-1.046075951E-2,-1.206423342E-2,7.864658721E-3
2.686784230E1,-1.382041909E-2,-4.123218823E-3,9.697199799E-3
2.688665089E1,-1.015533600E-2,5.344913341E-3,1.091889478E-2
2.690545948E1,-2.214321401E-3,7.482878864E-3,1.122431830E-2
2.692426808E1,1.145338640E-3,9.315420873E-3,1.030804776E-2
2.694307672E1,-1.603474026E-3,1.298050396E-2,8.475505747E-3
2.696188532E1,-5.268557463E-3,8.704573847E-3,7.253811229E-3
2.698069391E1,-6.184828468E-3,-4.123218823E-3,6.642963737E-3
2.699950250E1,-6.490251981E-3,-4.428642802E-3,7.864658721E-3
2.701831110E1,-7.406522986E-3,1.298050396E-2,8.475505747E-3
2.703711969E1,-7.101099472E-3,2.580829710E-2,1.030804776E-2
2.705592828E1,-4.352286924E-3,1.939439960E-2,1.000262424E-2
2.707473693E1,-3.130592173E-3,6.261184346E-3,8.170082234E-3
2.709354552E1,-8.322793990E-3,5.650337320E-3,8.170082234E-3
2.711235412E1,-1.259872504E-2,1.939439960E-2,8.170082234E-3
2.713116271E1,-1.015533600E-2,3.649812192E-2,9.086352773E-3
2.714997130E1,-8.322793990E-3,3.894151375E-2,8.475505747E-3
2.716877990E1,-1.382041909E-2,2.305948362E-2,9.391776286E-3
2.718758849E1,-1.412584260E-2,9.926267900E-3,9.086352773E-3
2.720639714E1,-1.137703005E-2,1.603474095E-2,9.391776286E-3
2.722520573E1,-1.656923257E-2,3.038965166E-2,7.559234742E-3
2.724401433E1,-2.817532979E-2,2.214321308E-2,8.399150101E-4
2.726282292E1,-2.848075330E-2,-1.603474095E-2,-4.046862945E-3
2.728163151E1,-8.322793990E-3,-5.512896553E-2,-1.908897655E-3
2.730044011E1,2.061609412E-3,-5.085303262E-2,5.344913807E-4
2.731924870E1,-1.229330152E-2,-1.359135192E-2,4.504998680E-3
2.733805730E1,-2.328855172E-2,4.123218823E-3,6.948387716E-3
2.735686594E1,-1.107160654E-2,-2.061609551E-2,9.086352773E-3
2.737567454E1,-4.352286924E-3,-3.466558084E-2,1.244601328E-2
2.739448313E1,-7.711946499E-3,-8.093725890E-3,1.305686031E-2
2.741329172E1,-4.046862945E-3,1.908897609E-2,1.275143679E-2
2.743210032E1,2.061609412E-3,9.620844387E-3,1.183516532E-2
2.745090891E1,2.977880416E-3,-1.481304597E-2,8.475505747E-3
2.746971750E1,-6.184828468E-3,-9.009997360E-3,6.337540224E-3
2.748852610E1,-1.779092662E-2,2.214321308E-2,2.672456671E-3
2.750733474E1,-1.901262067E-2,3.222219273E-2,6.948387716E-3
2.752614334E1,-1.382041909E-2,1.725643501E-2,1.091889478E-2
2.754495193E1,-1.687465608E-2,1.175880991E-2,1.091889478E-2
2.756376052E1,-2.451024577E-2,1.634016447E-2,1.000262424E-2
2.758256912E1,-2.389939874E-2,1.420219894E-2,7.864658721E-3
2.760137771E1,-1.779092662E-2,9.315420873E-3,4.504998680E-3
2.762018630E1,-1.198787708E-2,8.399149403E-3,5.421269219E-3
2.763899490E1,-8.322793990E-3,1.175880991E-2,3.588727675E-3
2.765780354E1,-1.229330152E-2,1.023169141E-2,2.977880416E-3
2.767661214E1,-1.779092662E-2,2.901524538E-3,6.642963737E-3
2.769542073E1,-1.595838554E-2,2.290677279E-3,1.030804776E-2
2.771422933E1,-1.076618303E-2,6.261184346E-3,1.183516532E-2
2.773303792E1,-1.015533600E-2,1.634016447E-2,1.122431830E-2
2.775184651E1,-9.849912487E-3,2.092151903E-2,8.780929260E-3
2.777065511E1,-5.573981442E-3,1.664558798E-2,1.091889478E-2
2.778946370E1,-7.406522986E-3,1.267508045E-2,1.152974181E-2
2.780827230E1,-1.229330152E-2,1.359135192E-2,1.122431830E-2
2.782708094E1,-1.443126611E-2,8.704573847E-3,9.086352773E-3
2.784588954E1,-1.351499557E-2,2.901524538E-3,9.086352773E-3
2.786469813E1,-1.137703005E-2,5.650337320E-3,7.253811229E-3
2.788350672E1,-8.628217503E-3,8.093725890E-3,7.253811229E-3
2.790231532E1,-8.322793990E-3,8.704573847E-3,7.559234742E-3
2.792112391E1,-1.198787708E-2,7.482878864E-3,7.253811229E-3
2.793993250E1,-1.870719716E-2,9.620844387E-3,6.337540224E-3
2.795874110E1,-2.267770469E-2,1.969982497E-2,5.726693198E-3
2.797754969E1,-1.687465608E-2,2.428117767E-2,5.421269219E-3
2.799635829E1,-1.382041909E-2,1.908897609E-2,4.810422193E-3
2.801516693E1,-2.115058713E-2,1.359135192E-2,5.115845706E-3
2.803397552E1,-2.756448276E-2,1.389677543E-2,6.642963737E-3
2.805278412E1,-1.901262067E-2,1.206423342E-2,6.642963737E-3
2.807159271E1,-1.107160654E-2,1.389677543E-2,7.864658721E-3
2.809040130E1,-1.107160654E-2,2.947338112E-2,1.091889478E-2
2.810920990E1,-9.239064530E-3,3.710897267E-2,9.391776286E-3
2.812801849E1,-7.101099472E-3,1.847812906E-2,8.170082234E-3
2.814682709E1,-7.101099472E-3,-1.206423342E-2,6.337540224E-3
2.816563568E1,-8.322793990E-3,-1.847812906E-2,4.199574701E-3
2.818444427E1,-1.076618303E-2,-3.512371797E-3,3.894151188E-3
2.820325287E1,-1.259872504E-2,9.926267900E-3,5.421269219E-3
2.822206151E1,-1.718007959E-2,5.344913341E-3,6.337540224E-3
2.824087011E1,-3.061871976E-2,-1.481304597E-2,4.199574701E-3
2.825967870E1,-4.222481698E-2,-3.710897267E-2,-2.825168660E-3
2.827848730E1,-3.550549597E-2,-4.566083103E-2,-1.412584260E-2
2.829729589E1,-1.168245357E-2,-4.016320780E-2,1.091889478E-2
2.831610448E1,2.672456671E-3,-2.214321308E-2,1.427855436E-2
2.833491308E1,-3.817795368E-4,-2.275406010E-2,1.275143679E-2
2.835372167E1,2.290677221E-4,-4.138490185E-2,1.305686031E-2
2.837253026E1,9.697199799E-3,-5.360184610E-2,5.115845706E-3
2.839133886E1,2.924431302E-2,-5.176930502E-2,3.894151188E-3
2.841014745E1,3.077143058E-2,-2.550287358E-2,4.810422193E-3
2.842895610E1,1.794363745E-2,-1.145338640E-2,2.061609412E-3
2.844776469E1,1.305686031E-2,-2.397575416E-2,1.450762269E-3
2.846657329E1,2.557922900E-2,-4.413371533E-2,8.170082234E-3
2.848538188E1,2.680092305E-2,-3.619270027E-2,1.550024934E-2
2.850419047E1,3.283303929E-3,-2.901524538E-3,1.397313084E-2
2.852299907E1,-7.101099472E-3,-2.596100792E-3,7.559234742E-3
2.854180766E1,2.061609412E-3,-3.955236077E-2,6.032116711E-3
2.856061625E1,-2.519744914E-3,-5.848862603E-2,6.032116711E-3
2.857942485E1,-2.145601064E-2,-3.436015919E-2,6.337540224E-3
2.859823344E1,-1.382041909E-2,-1.725643501E-2,1.145338640E-3
2.861704204E1,-1.603474026E-3,-2.458660305E-2,-2.519744914E-3
2.863585068E1,-7.711946499E-3,-1.939439960E-2,1.756185899E-3
2.865465927E1,-1.504211407E-2,-7.635590737E-4,5.421269219E-3
2.867346787E1,-1.443126611E-2,-1.527118147E-4,9.391776286E-3
2.869227646E1,-2.825168660E-3,-1.420219894E-2,1.672194339E-2
2.871108506E1,-1.076618303E-2,-6.566607859E-3,1.855448633E-2
2.872989365E1,-2.817532979E-2,1.939439960E-2,1.824906096E-2
2.874870224E1,-4.741701856E-2,4.810422286E-2,1.611109637E-2
2.876751084E1,-6.818582863E-2,6.154286116E-2,8.780929260E-3
2.878631943E1,-7.093463838E-2,4.199574888E-2,2.977880416E-3
2.880512802E1,-7.246175408E-2,2.397575416E-2,9.697199799E-3
2.882393662E1,-6.543701142E-2,2.428117767E-2,9.697199799E-3
2.884274521E1,-3.642176837E-2,2.901524538E-3,7.559234742E-3
2.886155381E1,-5.573981442E-3,-2.061609551E-2,1.672194339E-2
2.888036240E1,-8.628217503E-3,-6.872031838E-3,2.130329795E-2
2.889917105E1,-9.544488043E-3,2.947338112E-2,2.741177008E-2
2.891797964E1,-6.872031372E-4,5.543438718E-2,3.260397166E-2
2.893678823E1,-1.626380906E-2,6.337540597E-2,2.863346599E-2
2.895559683E1,-3.184041381E-2,5.299099907E-2,2.710634656E-2
2.897440542E1,-3.367295489E-2,4.138490185E-2,3.535278514E-2
2.899321401E1,-3.581092134E-2,4.199574888E-2,3.107685409E-2
2.901202261E1,-3.000787087E-2,4.474456236E-2,2.069245093E-2
2.903083120E1,-1.626380906E-2,1.756185852E-2,1.244601328E-2
2.904963980E1,-1.809635013E-2,-2.794626169E-2,1.275143679E-2
2.906844839E1,-2.512109280E-2,-4.749337584E-2,1.977618039E-2
2.908725698E1,-1.718007959E-2,-1.023169141E-2,2.069245093E-2
2.910606558E1,8.399150101E-4,3.741439432E-2,2.069245093E-2
2.912487417E1,8.475505747E-3,4.504998401E-2,2.099787444E-2
2.914368276E1,7.253811229E-3,1.908897609E-2,2.283041552E-2
2.916249136E1,1.275143679E-2,-1.374406274E-3,3.168770298E-2
2.918130000E1,-2.519744914E-3,2.336490713E-2,3.962871432E-2
2.920010860E1,-1.992889121E-2,6.826218218E-2,4.023956135E-2
2.921891719E1,-3.817795368E-4,7.620319724E-2,4.359922186E-2
2.923772579E1,2.466295846E-2,4.657710344E-2,4.237752780E-2
2.925653438E1,2.557922900E-2,2.550287358E-2,4.054498672E-2
2.927534297E1,1.183516532E-2,3.985778242E-2,3.749075159E-2
2.929415157E1,5.115845706E-3,5.115845799E-2,2.710634656E-2
2.931296016E1,7.864658721E-3,3.863608837E-2,2.771719359E-2
2.933176875E1,2.061609412E-3,2.580829710E-2,3.565821052E-2
2.935057735E1,1.450762269E-3,2.764083818E-2,3.596363217E-2
2.936938594E1,8.170082234E-3,3.558185324E-2,3.352024406E-2
2.938819454E1,1.763821393E-2,2.458660305E-2,3.107685409E-2
2.940700313E1,4.451549426E-2,-2.580829710E-2,2.466295846E-2
2.942581172E1,8.269345015E-2,-8.170082420E-2,1.580567285E-2
2.944462032E1,1.208714023E-1,-1.247655526E-1,2.099787444E-2
2.946342891E1,9.857547283E-2,-1.046075895E-1,2.619007602E-2
2.948223750E1,-2.214321401E-3,-3.619270027E-2,-4.352286924E-3
2.950104610E1,-9.750649333E-2,1.374406274E-3,-2.176143415E-2
2.951985474E1,-6.452073902E-2,-1.084253844E-2,-1.840177365E-2
2.953866334E1,3.718532622E-2,-4.688252881E-2,-6.872031372E-4
2.955747193E1,1.022405624E-1,-9.513945878E-2,2.252499200E-2
2.957628052E1,1.040730998E-1,-9.422318637E-2,2.527380548E-2
2.959508912E1,6.650599837E-2,-1.695101149E-2,1.947075687E-2
2.961389771E1,2.252499200E-2,8.200624585E-2,2.924431302E-2
2.963270631E1,-1.931804419E-2,1.366770715E-1,3.535278514E-2
2.965151490E1,-1.687465608E-2,1.064401343E-1,4.940227047E-2
2.967032349E1,2.802261710E-2,4.169032723E-2,4.940227047E-2
2.968913209E1,6.558972597E-2,1.175880991E-2,3.871244565E-2
2.970794068E1,7.414158434E-2,3.222219273E-2,2.741177008E-2
2.972674927E1,6.467345357E-2,7.345438004E-2,5.115845706E-3
2.974555787E1,7.505785674E-2,4.321744293E-2,6.948387716E-3
2.976436646E1,1.291178465E-1,-8.414421231E-2,1.275143679E-2
2.978317506E1,4.482091591E-2,-1.644706279E-1,1.427855436E-2
2.980198365E1,-1.579803675E-1,-1.299577504E-1,7.253811229E-3
2.982079224E1,-1.610346138E-1,-7.681404054E-2,-4.772244394E-2
2.983960084E1,7.864658721E-3,-4.810422286E-2,-8.223531395E-2
2.985840948E1,5.612159148E-2,1.068982761E-3,-8.651123941E-2
2.987721802E1,2.680092305E-2,2.916795574E-2,-6.788039953E-2
2.989602667E1,-1.931804419E-2,3.680354729E-2,-2.084516361E-2
2.991483526E1,-1.130831018E-1,3.924693540E-2,1.824906096E-2
2.993364386E1,-1.497339308E-1,7.635590737E-4,3.596363217E-2
2.995245245E1,-8.926005661E-2,-5.054761097E-2,2.527380548E-2
2.997126105E1,-4.741701856E-2,-3.527642787E-2,-3.741439432E-3
2.999006964E1,2.977880416E-3,3.955236077E-2,-2.542651631E-2
3.000887823E1,5.031854287E-2,8.475505561E-2,-5.780142173E-2
3.002768683E1,3.687990457E-2,6.612421572E-2,-6.726955622E-2
3.004649542E1,-6.184828468E-3,3.100049868E-2,-3.122956678E-2
3.006530401E1,-4.039227590E-2,6.001574174E-2,5.726693198E-3
3.008411261E1,-2.328855172E-2,1.009425074E-1,3.687990457E-2
3.010292120E1,8.170082234E-3,1.406475753E-1,7.017108053E-2
3.012172980E1,-9.926267667E-4,2.246390730E-1,1.013242900E-1
3.014053839E1,-1.565296017E-2,3.080197275E-1,1.172063202E-1
3.015934698E1,-4.963133950E-3,3.232909143E-1,1.175117418E-1
3.017815558E1,3.168770298E-2,2.484621257E-1,1.019351333E-1
3.019696417E1,3.504735976E-2,1.299577504E-1,7.169819623E-2
3.021577276E1,-1.595838554E-2,3.161134571E-2,3.687990457E-2
3.023458136E1,-7.001836598E-2,-8.093725890E-3,1.756185899E-3
3.025338995E1,-7.857023180E-2,3.817795310E-3,-1.382041909E-2
3.027219855E1,-6.635328382E-2,5.268557742E-2,-9.239064530E-3
3.029100714E1,-6.452073902E-2,1.177408099E-1,1.794363745E-2
3.030981573E1,-7.582141459E-2,1.608055383E-1,3.993413970E-2
3.032862438E1,-7.734853774E-2,1.583621502E-1,5.673243850E-2
3.034743292E1,-7.032378763E-2,1.540862173E-1,6.956022978E-2
3.036624151E1,-6.329904497E-2,1.714953631E-1,6.833853573E-2
3.038505011E1,-6.513158977E-2,2.008160353E-1,5.764871091E-2
3.040385870E1,-8.345700800E-2,2.347180545E-1,3.993413970E-2
3.042266735E1,-9.475768358E-2,2.408265322E-1,3.199312463E-2
3.044147594E1,-9.078717232E-2,2.173089087E-1,3.810159862E-2
3.046028454E1,-8.223531395E-2,1.824906170E-1,5.825955793E-2
3.047909313E1,-7.276718318E-2,1.528645307E-1,7.353074104E-2
3.049790172E1,-6.604786217E-2,1.418692768E-1,8.147175610E-2
3.051671032E1,-6.635328382E-2,1.675248593E-1,8.147175610E-2
3.053551891E1,-6.177192926E-2,2.118112892E-1,7.658497244E-2
3.055432750E1,-5.199837312E-2,2.334963679E-1,6.742226332E-2
3.057313610E1,-5.383091420E-2,2.209739983E-1,5.184566230E-2
3.059194469E1,-6.879667193E-2,1.885990947E-1,5.092938989E-2
3.061075328E1,-7.887565345E-2,1.653869003E-1,6.345175952E-2
3.062956188E1,-7.887565345E-2,1.577513069E-1,7.658497244E-2
3.064837047E1,-8.467870206E-2,1.650814712E-1,8.605311066E-2
3.066717907E1,-9.536852688E-2,1.745496094E-1,9.582666308E-2
3.068598766E1,-1.030041203E-1,1.763821393E-1,1.007134393E-1
3.070479625E1,-9.933903813E-2,1.763821393E-1,1.025459841E-1
3.072360485E1,-9.781191498E-2,1.840177327E-1,1.062110662E-1
3.074241344E1,-1.002553031E-1,1.806580722E-1,9.185615927E-2
3.076122204E1,-9.231429547E-2,1.464506239E-1,6.497887522E-2
3.078003063E1,-7.337802649E-2,8.078455180E-2,4.756972939E-2
3.079883922E1,-6.849125028E-2,1.572931744E-2,2.954973653E-2
3.081764782E1,-9.689565003E-2,1.985253533E-3,1.580567285E-2
3.083645641E1,-1.414874941E-1,4.413371533E-2,1.885990985E-2
3.085526500E1,-1.683647782E-1,8.047912270E-2,2.221956849E-2
3.087407360E1,-1.598129123E-1,5.268557742E-2,1.397313084E-2
3.089288219E1,-1.393495351E-1,4.734066315E-3,3.283303929E-3
3.091169078E1,-1.414874941E-1,6.872031838E-3,-6.795675959E-3
3.093049938E1,-1.546207070E-1,4.443913698E-2,-2.878617682E-2
3.094930797E1,-1.393495351E-1,3.588727489E-2,-3.458922729E-2
3.096811657E1,-1.124722511E-1,-9.315420873E-3,-1.382041909E-2
3.098692516E1,-1.182752997E-1,-5.940489471E-2,-6.490251981E-3
3.100573375E1,-1.500393599E-1,-1.067455560E-1,-2.848075330E-2
3.102454235E1,-1.595074832E-1,-1.525591016E-1,-6.788039953E-2
3.104335094E1,-1.161373332E-1,-2.133384049E-1,-8.192989230E-2
3.106215954E1,-5.902311578E-2,-2.560977042E-1,-6.055023521E-2
3.108096813E1,-7.582141459E-2,-2.380777150E-1,-4.772244394E-2
3.109977672E1,-1.207186878E-1,-2.631224692E-1,-5.627430230E-2
3.111858532E1,-1.448471546E-1,-3.605526090E-1,-6.665870547E-2
3.113739391E1,-1.167481840E-1,-4.686725736E-1,-4.955498502E-2
3.115620250E1,-5.413633958E-2,-4.964661002E-1,-2.084516361E-2
3.117501110E1,-1.870719716E-2,-4.081986845E-1,-1.473669056E-2
3.119381969E1,-2.725905925E-2,-2.951919436E-1,-5.260922015E-2
3.121262828E1,-5.657972768E-2,-2.454078794E-1,-8.498412371E-2
3.123143688E1,-5.077667907E-2,-2.374668717E-1,-8.742751181E-2
3.125024547E1,-1.046075951E-2,-2.469350100E-1,-8.223531395E-2
3.126905407E1,1.947075687E-2,-2.539597452E-1,-7.734853774E-2
3.128786266E1,2.588465251E-2,-2.460187376E-1,-5.352549255E-2
3.130667125E1,2.985516004E-2,-2.399102598E-1,-1.687465608E-2
3.132547985E1,3.046600707E-2,-1.873773932E-1,1.397313084E-2
3.134428844E1,7.253811229E-3,-1.146865711E-1,1.672194339E-2
3.136309704E1,9.086352773E-3,-8.261708915E-2,6.948387716E-3
3.138190563E1,5.367820337E-2,-1.565296054E-1,-9.849912487E-3
3.140071422E1,9.704835713E-2,-2.478512824E-1,-3.214583546E-2
3.141952282E1,9.246700257E-2,-2.145601064E-1,-5.474718660E-2
3.143833141E1,5.428905040E-2,-9.025268257E-2,-7.459972054E-2
3.145714000E1,4.451549426E-2,-2.916795574E-2,-7.826480269E-2
3.147594860E1,8.025006205E-2,-8.750387281E-2,-5.993938819E-2
3.149475719E1,1.056002229E-1,-1.073564067E-1,-4.436278343E-2
3.151356578E1,1.178171635E-1,-7.314895838E-2,-5.749600008E-2
3.153237438E1,1.584385037E-1,-7.620319724E-2,-6.360447407E-2
3.155118297E1,2.158581465E-1,-8.811471611E-2,-7.154548168E-2
3.156999157E1,2.473167777E-1,-4.993676394E-2,-9.109259397E-2
3.158880016E1,2.580066025E-1,1.679830020E-3,-1.042258143E-1
3.160760875E1,2.711398304E-1,2.290677279E-3,-1.109451354E-1
3.162641735E1,2.818296552E-1,-6.306997687E-2,-1.176644564E-1
3.164522594E1,2.738886476E-1,-1.681357026E-1,-1.161373332E-1
3.166403454E1,2.140256017E-1,-2.380777150E-1,-8.192989230E-2
3.168284313E1,1.074327603E-1,-1.968455315E-1,-5.230379477E-2
3.170165172E1,3.504735976E-2,-1.030804738E-1,-3.886515647E-2
3.172046032E1,5.795413256E-2,-7.498150319E-2,-3.733803704E-2
3.173926891E1,1.230093688E-1,-1.006370857E-1,-4.222481698E-2
3.175807750E1,1.541625708E-1,-1.265980899E-1,-7.521057129E-2
3.177688610E1,1.349208951E-1,-1.186570823E-1,-1.121668294E-1
3.179569469E1,8.483141661E-2,-5.665608495E-2,-1.408766508E-1
3.181450323E1,4.665346071E-2,2.336490713E-2,-1.747786701E-1
3.183331183E1,4.329380020E-2,6.551336497E-2,-1.769166440E-1
3.185212042E1,5.917582661E-2,3.344388679E-2,-1.735569835E-1
3.187092907E1,5.581616983E-2,-4.077405483E-2,-1.549261361E-1
3.188973761E1,2.649549954E-2,-6.917845458E-2,-1.106397063E-1
3.190854620E1,3.894151188E-3,-2.764083818E-2,-9.353598952E-2
3.192735480E1,2.374668792E-2,2.305948362E-2,-7.795938104E-2
3.194616339E1,5.581616983E-2,5.024218559E-2,-5.871769413E-2
3.196497198E1,3.993413970E-2,6.062658876E-2,-5.657972768E-2
3.198378058E1,-1.809635013E-2,7.711946964E-2,-6.818582863E-2
3.200258917E1,-4.924955964E-2,1.027750522E-1,-8.162446320E-2
3.202139776E1,-5.841226876E-2,1.250709742E-1,-8.956547827E-2
3.204020636E1,-6.207735091E-2,1.473668963E-1,-8.864920586E-2
3.205901495E1,-5.138752609E-2,1.672194302E-1,-9.811734408E-2
3.207782354E1,-2.328855172E-2,1.595838517E-1,-1.118614078E-1
3.209663214E1,7.253811229E-3,1.305686086E-1,-1.271325797E-1
3.211544073E1,2.008160390E-2,8.597674966E-2,-1.286597103E-1
3.213424933E1,3.382566571E-2,4.902049154E-2,-1.063637808E-1
3.215305792E1,1.947075687E-2,3.283303976E-2,-8.315158635E-2
3.217186651E1,-2.237228118E-2,1.664558798E-2,-7.032378763E-2
3.219067511E1,-2.848075330E-2,-4.581354442E-4,-5.841226876E-2
3.220948370E1,3.894151188E-3,-1.389677543E-2,-5.169294775E-2
3.222829230E1,4.940227047E-2,-1.359135192E-2,-4.588989913E-2
3.224710089E1,7.078192383E-2,-1.634016447E-2,-4.619532451E-2
3.226590948E1,5.642701685E-2,-2.733541466E-2,-5.688514933E-2
3.228471808E1,4.482091591E-2,-4.077405483E-2,-4.650074616E-2
3.230352667E1,5.428905040E-2,-5.390727147E-2,-2.695363574E-2
3.232233526E1,5.703786388E-2,-4.504998401E-2,-1.901262067E-2
3.234114386E1,5.215108395E-2,-3.344388679E-2,-1.290414855E-2
3.235995245E1,5.978667364E-2,-3.741439432E-2,-7.635590737E-5
3.237876105E1,4.848600179E-2,-7.956285775E-2,5.421269219E-3
3.239756964E1,8.399150101E-4,-9.941539168E-2,4.504998680E-3
3.241637823E1,-6.207735091E-2,-7.620319724E-2,-1.015533600E-2
3.243518677E1,-5.047125369E-2,-5.665608495E-2,-3.855973482E-2
3.245399542E1,6.375718117E-2,-1.284306347E-1,-5.902311578E-2
3.247280396E1,1.178171635E-1,-2.548760176E-1,-3.275668249E-2
3.249161256E1,-2.328855172E-2,-2.603736520E-1,-2.695363574E-2
3.251042115E1,-1.549261361E-1,-2.151709497E-1,-7.093463838E-2
3.252922974E1,-6.146650389E-2,-1.238492802E-1,-8.162446320E-2
3.254803834E1,1.440836042E-1,-2.336490713E-2,-5.780142173E-2
3.256684693E1,2.405974567E-1,9.926267900E-3,-3.611634299E-2
3.258565552E1,1.727934182E-1,1.695101149E-2,-1.626380906E-2
3.260446412E1,2.008160390E-2,7.284353673E-2,2.741177008E-2
3.262327271E1,-1.011715755E-1,1.608055383E-1,9.246700257E-2
3.264208131E1,-1.002553031E-1,2.451024652E-1,1.373642832E-1
3.266088990E1,-1.320957206E-2,2.612899244E-1,1.590493619E-1
3.267969849E1,1.068219170E-1,2.047865391E-1,1.672957987E-1
3.269850709E1,2.314347625E-1,1.479777545E-1,1.355317384E-1
3.271731568E1,2.577011883E-1,1.794363856E-1,6.894938648E-2
3.273612427E1,1.996707022E-1,2.918322682E-1,3.168770298E-2
3.275493287E1,9.888090193E-2,3.446705639E-1,5.123481527E-2
3.277374146E1,-4.039227590E-2,2.276933193E-1,1.641651988E-2
3.279255006E1,-1.332410574E-1,5.344913341E-3,-1.992889121E-2
3.281135865E1,-1.289651245E-1,-1.577513069E-1,1.000262424E-2
3.283016724E1,-1.051420867E-1,-1.907370538E-1,7.994463295E-2
3.284897584E1,-3.306210786E-2,-8.689302206E-2,1.214822456E-1
3.286778438E1,2.771719359E-2,5.543438718E-2,1.327829212E-1
3.288659297E1,2.680092305E-2,1.699682474E-1,1.327829212E-1
3.290540157E1,1.702736691E-2,2.081461996E-1,1.391968131E-1
3.292421016E1,1.488940232E-2,1.800472289E-1,1.101815775E-1
3.294301875E1,2.496838197E-2,9.177979827E-2,8.941277117E-2
3.296182735E1,2.313583903E-2,1.023169141E-2,9.368869662E-2
3.298063594E1,-1.840177365E-2,-3.405473381E-2,1.129303873E-1
3.299944454E1,-4.466820508E-2,-1.145338640E-2,1.300341040E-1
3.301825313E1,-3.489464894E-2,4.504998401E-2,1.529408842E-1
3.303706172E1,-1.473669056E-2,5.940489471E-2,1.782910377E-1
3.305587032E1,-6.184828468E-3,3.038965166E-2,1.721825749E-1
3.307467891E1,-2.451024577E-2,-1.420219894E-2,1.416402012E-1
3.309348750E1,-4.314108938E-2,-6.642963737E-2,8.452598751E-2
3.311229610E1,-6.390989572E-2,-1.174353883E-1,1.756185899E-3
3.313110469E1,-7.307260484E-2,-1.531699449E-1,-6.055023521E-2
3.314991329E1,-4.894413799E-2,-1.861557066E-1,-6.329904497E-2
3.316872188E1,-2.328855172E-2,-2.081461996E-1,-3.153498843E-2
3.318753042E1,-4.527905211E-2,-1.876828223E-1,2.191414498E-2
3.320633901E1,-8.803836256E-2,-1.244601309E-1,7.597412914E-2
3.322514761E1,-9.017632902E-2,-3.833066672E-2,1.355317384E-1
3.324395620E1,-4.069769755E-2,1.695101149E-2,1.440836042E-1
3.326276480E1,3.687990457E-2,-6.062658876E-2,7.566870749E-2
3.328157339E1,1.010188684E-1,-1.421747059E-1,1.733279042E-2
3.330038198E1,6.650599837E-2,-2.002051920E-1,9.086352773E-3
3.331919058E1,-3.733803704E-2,-1.892099380E-1,8.399150101E-4
3.333799917E1,-9.200886637E-2,-6.704048812E-2,1.244601328E-2
3.335680776E1,-7.948649675E-2,9.300149232E-2,4.573718831E-2
3.337561636E1,1.763821393E-2,1.293469071E-1,1.062110662E-1
3.339442495E1,1.230093688E-1,7.253811508E-2,1.349208951E-1
3.341323355E1,1.700446010E-1,8.704573847E-3,1.410293579E-1
3.343204214E1,1.117086932E-1,-4.993676394E-2,9.216158092E-2
3.345085073E1,1.916533336E-2,-1.550024897E-1,1.450762269E-3
3.346965927E1,-1.992889121E-2,-2.930539846E-1,-4.466820508E-2
3.348846787E1,-3.184041381E-2,-3.700207174E-1,-5.688514933E-2
3.350727646E1,-5.108210072E-2,-3.303156495E-1,-7.765395939E-2
3.352608506E1,-3.703261539E-2,-2.090624720E-1,-6.421531737E-2
3.354489365E1,-7.101099472E-3,-6.154286116E-2,-1.626380906E-2
3.356370224E1,7.559234742E-3,5.085303262E-2,2.344126441E-2
3.358251084E1,1.145338640E-3,1.012479365E-1,4.390464723E-2
3.360131943E1,2.061609412E-3,9.910997003E-2,7.902836055E-2
3.362012802E1,6.032116711E-3,9.666658193E-2,1.004080176E-1
3.363893662E1,6.642963737E-3,1.207950488E-1,7.994463295E-2
3.365774521E1,2.954973653E-2,1.287360638E-1,4.054498672E-2
3.367655381E1,6.772769243E-2,7.345438004E-2,1.152974181E-2
3.369536240E1,8.696937561E-2,5.039489828E-3,-1.168245357E-2
3.371417099E1,7.719582319E-2,-3.069507517E-2,-1.748550311E-2
3.373297959E1,7.597412914E-2,-3.222219273E-2,-8.017370477E-3
3.375178818E1,6.558972597E-2,-7.177455351E-3,2.283041552E-2
3.377059672E1,1.427855436E-2,5.635065958E-2,5.092938989E-2
3.378940532E1,-1.443126611E-2,1.455343664E-1,6.803311408E-2
3.380821391E1,8.170082234E-3,2.057028115E-1,5.825955793E-2
3.382702250E1,4.207210615E-2,1.861557066E-1,1.977618039E-2
3.384583110E1,6.345175952E-2,1.119377613E-1,1.152974181E-2
3.386463969E1,5.123481527E-2,4.566083103E-2,2.069245093E-2
3.388344828E1,1.061347127E-2,6.566607859E-3,1.763821393E-2
3.390225688E1,-3.855973482E-2,-4.321744293E-2,1.450762269E-3
3.392106547E1,-4.802786559E-2,-9.910997003E-2,-2.214321401E-3
3.393987407E1,-2.817532979E-2,-1.207950488E-1,-7.406522986E-3
3.395868266E1,-8.322793990E-3,-7.467607409E-2,-1.992889121E-2
3.397749125E1,2.374668792E-2,1.847812906E-2,-1.412584260E-2
3.399629985E1,2.649549954E-2,7.711946964E-2,6.948387716E-3
3.401510839E1,-7.635590737E-5,8.719844371E-2,2.221956849E-2
3.403391698E1,1.145338640E-3,6.490252167E-2,2.649549954E-2
3.405272558E1,1.244601328E-2,1.664558798E-2,1.397313084E-2
3.407153417E1,1.611109637E-2,-1.145338640E-2,3.283303929E-3
3.409034276E1,8.170082234E-3,2.290677279E-3,-1.908897655E-3
3.410915136E1,-7.101099472E-3,4.107947648E-2,2.977880416E-3
3.412795995E1,-2.237228118E-2,6.123743951E-2,5.115845706E-3
3.414676854E1,-4.069769755E-2,3.863608837E-2,1.756185899E-3
3.416557714E1,-6.696412712E-2,3.206948051E-3,-3.130592173E-3
3.418438573E1,-7.154548168E-2,-2.214321308E-2,-5.879404955E-3
3.420319433E1,-4.619532451E-2,-2.611372061E-2,-1.908897655E-3
3.422200292E1,-3.886515647E-2,1.374406274E-3,5.344913807E-4
3.424081151E1,-4.772244394E-2,1.267508045E-2,8.399150101E-4
3.425962006E1,-4.863871261E-2,6.872031838E-3,9.697199799E-3
3.427842865E1,-3.092414327E-2,-4.428642802E-3,1.611109637E-2
3.429723724E1,5.421269219E-3,-1.145338640E-2,1.366770733E-2
3.431604584E1,2.069245093E-2,-1.175880991E-2,2.221956849E-2
3.433485443E1,-6.795675959E-3,1.679830020E-3,2.313583903E-2
3.435366302E1,-1.259872504E-2,2.000524849E-2,1.550024934E-2
3.437247162E1,1.122431830E-2,2.122694254E-2,1.152974181E-2
3.439128021E1,4.390464723E-2,1.374406274E-3,2.008160390E-2
3.441008880E1,6.803311408E-2,-2.336490713E-2,3.779617324E-2
3.442889740E1,5.306735635E-2,-3.924693540E-2,4.573718831E-2
3.444770599E1,-7.635590737E-5,-2.947338112E-2,3.718532622E-2
3.446651459E1,-2.603736520E-2,-1.084253844E-2,2.741177008E-2
3.448532318E1,-7.406522986E-3,-1.328592747E-2,1.916533336E-2
3.450413172E1,2.588465251E-2,-3.619270027E-2,1.763821393E-2
3.452294032E1,3.871244565E-2,-5.024218559E-2,1.458397787E-2
3.454174891E1,1.916533336E-2,-3.313846514E-2,1.122431830E-2
3.456055750E1,-6.490251981E-3,3.817795310E-3,1.641651988E-2
3.457936610E1,-2.145601064E-2,2.641914412E-2,1.519482583E-2
3.459817469E1,-2.878617682E-2,1.817270555E-2,6.642963737E-3
3.461698328E1,-3.184041381E-2,-1.175880991E-2,-9.926267667E-4
3.463579188E1,-3.061871976E-2,-2.733541466E-2,-5.573981442E-3
3.465460047E1,-2.817532979E-2,-9.926267900E-3,-2.825168660E-3
3.467340907E1,-2.481566928E-2,2.367033064E-2,8.399150101E-4
3.469221761E1,-2.237228118E-2,4.474456236E-2,-3.817795368E-4
3.471102620E1,-2.115058713E-2,4.107947648E-2,-2.214321401E-3
3.472983480E1,-2.206685767E-2,2.061609551E-2,2.367033157E-3
3.474864339E1,-2.878617682E-2,1.114796288E-2,-3.817795368E-4
3.476745198E1,-3.611634299E-2,1.298050396E-2,-6.490251981E-3
3.478626058E1,-3.855973482E-2,1.328592747E-2,-5.268557463E-3
3.480506917E1,-3.703261539E-2,1.542389300E-2,1.450762269E-3
3.482387776E1,-4.344651103E-2,2.153236605E-2,-6.872031372E-4
3.484268636E1,-4.833329096E-2,2.305948362E-2,-4.657710437E-3
3.486149495E1,-4.436278343E-2,2.122694254E-2,-4.046862945E-3
3.488030355E1,-3.978142887E-2,2.580829710E-2,-2.214321401E-3
3.489911209E1,-3.397838026E-2,3.985778242E-2,2.290677221E-4
3.491792068E1,-3.214583546E-2,5.299099907E-2,2.367033157E-3
3.493672927E1,-2.970244735E-2,5.299099907E-2,2.061609412E-3
3.495553787E1,-1.992889121E-2,4.107947648E-2,5.421269219E-3
3.497434646E1,-6.184828468E-3,2.305948362E-2,1.152974181E-2
3.499315506E1,2.061609412E-3,1.206423342E-2,1.672194339E-2
3.501196365E1,1.756185899E-3,1.786728203E-2,1.183516532E-2
3.503077224E1,-6.795675959E-3,1.817270555E-2,7.559234742E-3
3.504958084E1,-6.795675959E-3,3.817795310E-3,8.475505747E-3
3.506838943E1,1.122431830E-2,-9.926267900E-3,9.086352773E-3
3.508719797E1,2.680092305E-2,-1.817270555E-2,7.559234742E-3
3.510600657E1,1.855448633E-2,-1.664558798E-2,8.475505747E-3
3.512481516E1,-6.184828468E-3,-1.359135192E-2,5.421269219E-3
3.514362375E1,-2.512109280E-2,-1.175880991E-2,-4.963133950E-3
3.516243235E1,-7.101099472E-3,-1.359135192E-2,-1.298050396E-3
3.518124094E1,1.091889478E-2,-1.023169141E-2,9.697199799E-3
3.520004954E1,4.810422193E-3,1.985253533E-3,1.366770733E-2
3.521885813E1,-9.926267667E-4,1.511846948E-2,1.611109637E-2
3.523766672E1,-6.184828468E-3,1.175880991E-2,1.672194339E-2
3.525647526E1,8.399150101E-4,-7.635590737E-4,1.641651988E-2
3.527528386E1,1.275143679E-2,-8.704573847E-3,1.305686031E-2
3.529409245E1,6.948387716E-3,-7.177455351E-3,8.170082234E-3
3.531290105E1,-3.436015919E-3,5.955760833E-3,-6.872031372E-4
3.533170964E1,1.183516532E-2,1.985253533E-3,-9.926267667E-4
3.535051823E1,3.138227761E-2,-2.244863659E-2,1.244601328E-2
3.536932683E1,3.077143058E-2,-3.802524135E-2,2.863346599E-2
3.538813542E1,2.710634656E-2,-2.794626169E-2,3.077143058E-2
3.540694396E1,2.313583903E-2,-8.704573847E-3,2.527380548E-2
3.542575261E1,1.336228382E-2,1.068982761E-3,1.580567285E-2
3.544456115E1,7.253811229E-3,-3.206948051E-3,4.504998680E-3
3.546336974E1,8.475505747E-3,-1.908897609E-2,1.450762269E-3
3.548217834E1,5.344913807E-4,-3.527642787E-2,2.977880416E-3
3.550098693E1,-2.214321401E-3,-3.588727489E-2,1.336228382E-2
3.551979552E1,1.122431830E-2,-1.634016447E-2,1.611109637E-2
3.553860412E1,1.450762269E-3,1.068982761E-3,2.367033157E-3
3.555741271E1,-3.092414327E-2,-9.926267900E-3,-1.908897655E-3
3.557622125E1,-3.000787087E-2,-3.619270027E-2,1.450762269E-3
3.559502985E1,-1.603474026E-3,-4.627167806E-2,-3.130592173E-3
3.561383844E1,5.421269219E-3,-4.321744293E-2,-5.879404955E-3
3.563264704E1,-7.101099472E-3,-3.955236077E-2,-7.101099472E-3
3.565145563E1,-9.239064530E-3,-2.428117767E-2,2.061609412E-3
3.567026422E1,-1.534753758E-2,5.955760833E-3,1.061347127E-2
3.568907282E1,-1.504211407E-2,2.122694254E-2,8.475505747E-3
3.570788141E1,-9.849912487E-3,5.955760833E-3,6.642963737E-3
3.572668995E1,6.032116711E-3,-2.489202656E-2,9.391776286E-3
3.574549855E1,2.061609412E-3,-2.214321308E-2,1.152974181E-2
3.576430714E1,-4.963133950E-3,1.939439960E-2,3.894151188E-3
3.578311573E1,2.061609412E-3,4.443913698E-2,-6.872031372E-4
3.580192433E1,-6.490251981E-3,2.641914412E-2,1.145338640E-3
3.582073292E1,-1.015533600E-2,-8.399149403E-3,5.421269219E-3
3.583954151E1,-8.017370477E-3,-2.367033064E-2,5.421269219E-3
3.585835011E1,-1.656923257E-2,-1.786728203E-2,1.756185899E-3
3.587715870E1,-1.443126611E-2,-1.236965694E-2,-9.926267667E-4
3.589596724E1,-1.626380906E-2,-5.955760833E-3,-8.017370477E-3
3.591477584E1,-1.320957206E-2,-2.901524538E-3,-8.322793990E-3
3.593358443E1,-1.015533600E-2,-3.206948051E-3,-2.825168660E-3
3.595239302E1,-1.412584260E-2,-7.635590737E-4,-2.825168660E-3
3.597120162E1,-1.259872504E-2,1.985253533E-3,-7.635590737E-5
3.599001021E1,-8.628217503E-3,-3.512371797E-3,-7.635590737E-5
3.600881881E1,-5.573981442E-3,-8.704573847E-3,2.290677221E-4
3.602762735E1,8.399150101E-4,1.679830020E-3,7.559234742E-3
3.604643594E1,1.145338640E-3,3.038965166E-2,4.504998680E-3
3.606524454E1,2.290677221E-4,4.169032723E-2,-2.214321401E-3
3.608405313E1,3.894151188E-3,2.367033064E-2,-1.603474026E-3
3.610286172E1,6.948387716E-3,7.788302377E-3,6.642963737E-3
3.612167032E1,7.253811229E-3,2.764083818E-2,1.733279042E-2
3.614047891E1,1.756185899E-3,6.612421572E-2,2.069245093E-2
3.615928745E1,-7.406522986E-3,8.200624585E-2,1.702736691E-2
3.617809605E1,-8.017370477E-3,6.490252167E-2,1.947075687E-2
3.619690464E1,6.948387716E-3,2.367033064E-2,1.947075687E-2
3.621571323E1,1.733279042E-2,-2.244863659E-2,1.061347127E-2
3.623452183E1,2.191414498E-2,-5.635065958E-2,4.504998680E-3
3.625333042E1,1.947075687E-2,-5.665608495E-2,8.475505747E-3
3.627213901E1,-7.635590737E-5,-3.283303976E-2,1.244601328E-2
3.629094756E1,-8.322793990E-3,-1.786728203E-2,1.397313084E-2
3.630975615E1,7.864658721E-3,-2.764083818E-2,2.099787444E-2
3.632856474E1,1.305686031E-2,-3.527642787E-2,2.038702741E-2
3.634737334E1,1.366770733E-2,-3.191677108E-2,1.305686031E-2
3.636618193E1,1.305686031E-2,-3.527642787E-2,7.559234742E-3
3.638499052E1,3.588727675E-3,-3.863608837E-2,7.864658721E-3
3.640379912E1,-1.107160654E-2,-2.305948362E-2,6.337540224E-3
3.642260766E1,-8.933641016E-3,-7.482878864E-3,-3.817795368E-4
3.644141625E1,-6.872031372E-4,-1.786728203E-2,1.145338640E-3
3.646022485E1,1.305686031E-2,-4.077405483E-2,9.697199799E-3
3.647903344E1,2.069245093E-2,-3.924693540E-2,1.824906096E-2
3.649784204E1,5.115845706E-3,6.261184346E-3,2.557922900E-2
3.651665063E1,-9.544488043E-3,4.352286831E-2,2.588465251E-2
3.653545917E1,-6.184828468E-3,3.161134571E-2,1.366770733E-2
3.655426776E1,1.122431830E-2,-1.603474095E-2,7.559234742E-3
3.657307636E1,2.588465251E-2,-5.176930502E-2,4.810422193E-3
3.659188495E1,1.794363745E-2,-4.688252881E-2,9.391776286E-3
3.661069355E1,1.450762269E-3,-5.955760833E-3,1.733279042E-2
3.662950214E1,-8.628217503E-3,3.527642787E-2,1.672194339E-2
3.664831068E1,-1.046075951E-2,3.863608837E-2,8.170082234E-3
3.666711927E1,-5.879404955E-3,3.817795310E-3,5.344913807E-4
3.668592787E1,3.894151188E-3,-2.611372061E-2,6.032116711E-3
3.670473646E1,4.199574701E-3,-1.725643501E-2,5.115845706E-3
3.672354506E1,-1.809635013E-2,2.000524849E-2,2.672456671E-3
3.674235365E1,-3.581092134E-2,5.299099907E-2,-3.130592173E-3
3.676116219E1,-1.901262067E-2,5.390727147E-2,-1.603474026E-3
3.677997078E1,5.421269219E-3,3.038965166E-2,5.115845706E-3
3.679877938E1,2.977880416E-3,2.092151903E-2,1.488940232E-2
3.681758797E1,-8.933641016E-3,4.077405483E-2,1.091889478E-2
3.683639657E1,-1.779092662E-2,5.940489471E-2,4.199574701E-3
3.685520516E1,-2.939702384E-2,4.596625641E-2,-2.519744914E-3
3.687401375E1,-2.512109280E-2,3.817795310E-3,-1.320957206E-2
3.689282230E1,-1.168245357E-2,-2.611372061E-2,-6.795675959E-3
3.691163089E1,-4.963133950E-3,-1.756185852E-2,-9.926267667E-4
3.693043948E1,-9.544488043E-3,2.275406010E-2,2.061609412E-3
3.694924808E1,-2.237228118E-2,5.635065958E-2,2.977880416E-3
3.696805667E1,-2.939702384E-2,5.543438718E-2,1.145338640E-3
3.698686521E1,-2.206685767E-2,2.886253223E-2,1.450762269E-3
3.700567380E1,-1.473669056E-2,5.650337320E-3,3.894151188E-3
3.702448240E1,-1.351499557E-2,1.389677543E-2,3.588727675E-3
3.704329099E1,-1.412584260E-2,3.252761811E-2,4.810422193E-3
3.706209959E1,-1.015533600E-2,3.527642787E-2,8.399150101E-4
3.708090818E1,-6.184828468E-3,2.244863659E-2,8.399150101E-4
3.709971672E1,-6.872031372E-4,6.566607859E-3,3.894151188E-3
3.711852532E1,4.199574701E-3,-1.359135192E-2,4.504998680E-3
3.713733391E1,-4.657710437E-3,-2.092151903E-2,8.170082234E-3
3.715614250E1,-2.115058713E-2,1.374406274E-3,9.697199799E-3
3.717495110E1,-3.184041381E-2,3.619270027E-2,6.337540224E-3
3.719375969E1,-2.267770469E-2,3.894151375E-2,2.367033157E-3
3.721256823E1,3.588727675E-3,5.650337320E-3,2.977880416E-3
3.723137683E1,2.290677221E-4,-1.908897609E-2,4.199574701E-3
3.725018542E1,-2.237228118E-2,-5.650337320E-3,5.344913807E-4
3.726899401E1,-1.626380906E-2,7.788302377E-3,4.810422193E-3
3.728780261E1,-1.107160654E-2,-7.482878864E-3,1.000262424E-2
3.730661115E1,-1.656923257E-2,-2.886253223E-2,1.214058883E-2
3.732541974E1,-1.534753758E-2,-2.611372061E-2,1.000262424E-2
3.734422834E1,-1.229330152E-2,2.901524538E-3,5.726693198E-3
3.736303693E1,-3.436015919E-3,2.580829710E-2,-1.603474026E-3
3.738184552E1,-5.573981442E-3,7.177455351E-3,-9.926267667E-4
3.740065412E1,-1.870719716E-2,-2.611372061E-2,5.726693198E-3
3.741946266E1,-2.053973824E-2,-2.519745007E-2,5.115845706E-3
3.743827125E1,-1.473669056E-2,-3.206948051E-3,-1.908897655E-3
3.745707985E1,-1.931804419E-2,3.817795310E-3,-3.817795368E-4
3.747588844E1,-1.931804419E-2,-3.206948051E-3,7.864658721E-3
3.749469704E1,-4.046862945E-3,-3.512371797E-3,1.519482583E-2
3.751350558E1,1.336228382E-2,7.788302377E-3,1.336228382E-2
3.753231417E1,1.145338640E-3,1.634016447E-2,5.115845706E-3
3.755112276E1,-1.748550311E-2,1.985253533E-3,1.756185899E-3
