"Time (s)","Acceleration x (m/s^2)","Acceleration y (m/s^2)","Acceleration z (m/s^2)"
4.121752300E-2,8.437092781E0,2.347358942E0,4.359723091E0
6.002674100E-2,8.490931511E0,2.435893536E0,4.389633179E0
7.883804400E-2,8.453842163E0,2.508874655E0,4.423132420E0
9.764773100E-2,8.469395638E0,2.532802820E0,4.427918434E0
1.164573660E-1,8.410771370E0,2.579462767E0,4.376472473E0
1.352670540E-1,8.403593063E0,2.547159672E0,4.409972191E0
1.540767410E-1,8.444271088E0,2.514856577E0,4.340580463E0
1.728864290E-1,8.469395638E0,2.471785784E0,4.205385685E0
1.916960640E-1,8.530412674E0,2.489732027E0,4.241278172E0
2.105057520E-1,8.595019341E0,2.434697151E0,4.165904045E0
2.293154390E-1,8.487341881E0,2.414358139E0,4.126422882E0
2.481250750E-1,8.472985268E0,2.402393818E0,4.182653904E0
2.669347620E-1,8.550751686E0,2.483749866E0,4.262813568E0
2.857444500E-1,8.543573380E0,2.611765862E0,4.302295208E0
3.045540850E-1,8.531609535E0,2.699103832E0,4.482953072E0
3.233637730E-1,8.639286041E0,2.851048231E0,4.712664127E0
3.421734600E-1,8.651249886E0,2.940778971E0,4.694717884E0
3.609830960E-1,8.520841599E0,3.315255880E0,4.723432064E0
3.797927830E-1,9.332008362E0,3.451646566E0,4.292723656E0
3.986024710E-1,8.953942299E0,3.365504980E0,3.046063185E0
4.174121060E-1,8.197810173E0,3.121437073E0,2.971885681E0
4.362217940E-1,9.034101486E0,2.666800737E0,3.044866800E0
4.550314810E-1,9.074779510E0,2.256431818E0,2.665604353E0
4.738411160E-1,9.102297783E0,2.301895380E0,1.765903115E0
4.926508040E-1,9.608379364E0,1.854437590E0,4.271188378E-1
5.114604910E-1,8.979066849E0,1.621137381E0,8.219345808E-1
5.302701270E-1,8.742177963E0,1.555334687E0,1.176072359E0
5.490798140E-1,8.900103569E0,1.659422517E0,1.403390527E0
5.678895020E-1,9.561718941E0,2.334198475E0,7.345965505E-1
5.866991370E-1,9.787840843E0,2.690729141E0,7.393822074E-1
6.055088250E-1,9.284152031E0,2.739781857E0,1.238285661E0
6.243184600E-1,9.128618240E0,2.662015200E0,1.459621787E0
6.431281480E-1,9.048459053E0,2.770888567E0,1.926222205E0
6.619378350E-1,9.010173798E0,3.046063185E0,2.243271112E0
6.807474710E-1,9.388239861E0,3.176471949E0,2.142772675E0
6.995571580E-1,9.285347939E0,3.220739365E0,2.487339020E0
7.183668460E-1,9.250652313E0,3.104687452E0,1.975275040E0
7.371764810E-1,9.298508644E0,2.651247501E0,1.582852125E0
7.559861690E-1,9.061619759E0,2.568695068E0,1.561316729E0
7.747958560E-1,8.732605934E0,2.587837696E0,1.441675663E0
7.936054910E-1,8.863015175E0,2.446661234E0,6.209374666E-1
8.124151790E-1,9.735198975E0,3.147758245E0,-1.884347796E0
8.312248660E-1,9.580862045E0,3.456432343E0,-6.448656917E-1
8.500345020E-1,9.646664619E0,3.932604074E0,-1.097109199E0
8.688441890E-1,1.014437199E1,3.422932863E0,-2.238485575E0
8.876538250E-1,9.064012527E0,2.286342144E0,-2.175075769E0
9.064635120E-1,8.807980537E0,2.196611166E0,-7.453642488E-1
9.252732000E-1,9.164510727E0,2.797209740E0,1.112662554E-1
9.440828350E-1,8.394021988E0,2.921636343E0,-1.269392371E0
9.628925230E-1,8.915657043E0,2.682354212E0,-2.522035122E0
9.817021580E-1,9.450452805E0,2.749353170E0,-2.988635540E0
1.000511846E0,8.433503151E0,2.452643156E0,-3.856033802E0
1.019321533E0,8.756534576E0,2.334198475E0,-3.611965895E0
1.038131169E0,9.499505997E0,2.421536446E0,-3.797409534E0
1.056940856E0,8.252845764E0,2.035095692E0,-4.144368649E0
1.075750491E0,7.379465103E0,1.441675663E0,-4.146761417E0
1.094560179E0,7.768298626E0,1.208375454E0,-4.758127689E0
1.113369814E0,9.131011009E0,1.210768223E0,-3.757927895E0
1.132179502E0,8.913264275E0,4.498506486E-1,-4.855037212E0
1.150989189E0,8.691927910E0,2.500499785E-1,-5.008177757E0
1.169798825E0,8.347361565E0,-1.531406492E-1,-6.472585201E0
1.188608512E0,7.434499741E0,-1.064806059E-1,-5.241477966E0
1.207418148E0,7.700103283E0,2.033899277E-1,-6.583851337E0
1.226227835E0,8.774480820E0,2.012363911E0,-7.201199532E0
1.245037471E0,7.629515171E0,3.613162279E0,-5.173282623E0
1.263847158E0,6.166304111E0,2.011167526E0,-4.616951466E0
1.282656846E0,8.457431793E0,1.294517040E0,-5.380261898E0
1.301466481E0,8.512466431E0,1.730010748E0,-4.997410297E0
1.320276169E0,8.044670105E0,2.572284460E0,-4.508078098E0
1.339085804E0,8.189435959E0,3.019742250E0,-4.600201607E0
1.357895491E0,8.629714966E0,2.817548752E0,-4.773681164E0
1.376705127E0,8.557929993E0,2.188236237E0,-4.469792843E0
1.395514814E0,8.829515457E0,1.562513232E0,-4.341776848E0
1.414324502E0,8.961120605E0,1.640279889E0,-3.729214191E0
1.433134137E0,8.106883049E0,2.178664923E0,-2.365305185E0
1.451943825E0,8.824729919E0,2.260020971E0,-3.865604877E0
1.470753460E0,8.322237015E0,2.027917147E0,-4.315455437E0
1.489563148E0,8.085348129E0,1.731207132E0,-4.158725739E0
1.508372783E0,8.644071579E0,1.141376376E0,-4.680361271E0
1.527182471E0,9.150154114E0,1.104287624E0,-4.493721008E0
1.545992106E0,9.419346809E0,1.030110121E0,-3.713660717E0
1.564801794E0,8.906085968E0,1.524227977E0,-3.336791277E0
1.583611429E0,8.435895920E0,4.487739086E0,-3.327219963E0
1.602421116E0,7.964509964E0,4.292723656E0,-1.438086390E0
1.621230752E0,8.729017258E0,2.486142635E0,-2.944368362E0
1.640040439E0,9.136993408E0,1.182054400E0,-4.156332970E0
1.658850127E0,8.346165657E0,7.250252366E-1,-4.922036171E0
1.677659762E0,8.035098076E0,1.454836130E0,-4.515256405E0
1.696469450E0,8.441878319E0,2.343769789E0,-4.570291042E0
1.715279085E0,7.989634991E0,2.985046148E0,-4.645665169E0
1.734088773E0,7.721638680E0,3.168097258E0,-4.817948341E0
1.752898408E0,8.157132149E0,2.490928411E0,-5.487938881E0
1.771708096E0,8.108079910E0,2.128415823E0,-5.937789440E0
1.790517731E0,7.276573658E0,3.757927895E0,-5.078765869E0
1.809327419E0,7.284948349E0,5.337191105E0,-5.441278458E0
1.828137054E0,8.822337151E0,5.776273727E0,-7.807780266E0
1.846944062E0,9.300901413E0,9.786644578E-1,-7.006184578E0
1.865752969E0,7.771887779E0,8.398807645E-1,-5.217549801E0
1.884562656E0,5.635097504E0,1.450050473E0,-4.120440483E0
1.903372292E0,5.462814331E0,3.792623878E-1,-4.037888050E0
1.922181979E0,7.177271366E0,5.551348329E-1,-5.155336380E0
1.940991615E0,8.417949677E0,8.578268886E-1,-5.551348686E0
1.959801302E0,7.624729156E0,1.176072359E0,-6.624529362E0
1.978610938E0,6.751348972E0,1.822134495E0,-6.323033810E0
1.997420625E0,6.500102520E0,3.414557934E0,-7.383054256E0
2.016230261E0,6.778866768E0,3.418147087E0,-6.826723099E0
2.035039948E0,6.151947021E0,3.932604074E0,-7.270591736E0
2.053849583E0,5.726024628E0,3.585644722E0,-6.528816700E0
2.072659271E0,6.203392506E0,2.622533560E0,-7.168896675E0
2.091468906E0,6.187839508E0,2.008774519E0,-6.781259537E0
2.110278594E0,5.338387489E0,2.568695068E0,-7.765905857E0
2.129088229E0,4.090530396E0,3.187239647E0,-7.702496052E0
2.147897865E0,3.667000771E0,2.465803623E0,-8.919246674E0
2.166707552E0,4.082155228E0,2.691925466E-1,-9.303294182E0
2.185517240E0,3.016152859E0,2.055434704E0,-8.195417404E0
2.204326875E0,2.803191662E0,4.426721931E-1,-7.630711555E0
2.223136511E0,5.681757450E0,-2.880958557E0,-8.435895920E0
2.241946198E0,6.113661766E0,-3.400201082E0,-9.713663101E0
2.260755886E0,5.905486107E0,-3.623929977E0,-1.068873882E1
2.279565521E0,3.274577856E0,-1.345962763E0,-9.529416084E0
2.298375156E0,2.490928411E0,9.487541914E-1,-8.819944382E0
2.317184844E0,2.979064226E0,2.245664120E0,-8.817551613E0
2.335994479E0,1.077966571E0,2.606980324E0,-1.034058285E1
2.354804167E0,3.014956474E0,-1.986042857E-1,-1.127617645E1
2.373613802E0,3.811766386E0,-1.219143152E0,-9.962516785E0
2.392423490E0,4.573880672E0,-2.096112728E0,-9.109476089E0
2.411233125E0,4.527220249E0,-2.147558212E0,-7.710870743E0
2.430042813E0,5.134997368E0,-1.472782373E0,-7.222734928E0
2.448852448E0,5.109872818E0,1.794617027E-1,-8.964710236E0
2.467662136E0,3.290131092E0,6.197410822E-1,-1.021017456E1
2.486471771E0,2.193022013E0,1.500299811E0,-8.897710800E0
2.505281458E0,3.128615618E0,1.552941918E0,-8.158329010E0
2.524091094E0,2.943171740E0,2.158325911E0,-8.462217331E0
2.542900729E0,1.806581140E0,2.094916344E0,-9.830911636E0
2.561710417E0,2.434697151E0,1.463211060E0,-1.001396275E1
2.580520052E0,1.188036442E0,2.681157827E0,-9.156135559E0
2.599329740E0,9.762716293E-1,2.922832966E0,-9.907482147E0
2.618139375E0,1.119840980E0,2.426322222E0,-9.902696609E0
2.636949063E0,2.628515720E0,-8.111668825E-1,-9.888339996E0
2.655758698E0,3.629911900E0,-1.877169371E0,-8.553144455E0
2.674568386E0,3.343969584E0,-1.317248821E0,-8.023134232E0
2.693378021E0,3.817748547E0,-2.750549555E0,-8.031509399E0
2.712187656E0,5.307280540E0,-3.284149170E0,-7.697710514E0
2.730997344E0,6.929614544E0,-1.722832322E-1,-8.382058144E0
2.749806979E0,4.967499733E0,1.150947690E0,-9.528220177E0
2.768616667E0,2.791227579E0,-3.242274821E-1,-1.034776115E1
2.787426302E0,2.591426849E0,-2.033899166E-2,-9.247062683E0
2.806235990E0,3.576073408E0,3.122633696E-1,-9.269794464E0
2.825045625E0,3.474378586E0,-7.657032609E-1,-8.924032211E0
2.843855313E0,3.403790236E0,-2.392822653E-1,-8.604590416E0
2.862664948E0,3.180061340E0,-1.351944804E-1,-9.120243073E0
2.881474583E0,3.568894863E0,-2.133201361E0,-8.975478172E0
2.900284271E0,4.303491592E0,-3.987638950E0,-8.105687141E0
2.919093906E0,7.785048485E0,-4.834698200E0,-7.529016495E0
2.937903594E0,6.736992359E0,-3.997210264E0,-9.029315948E0
2.956713229E0,5.592026711E0,-3.937389612E0,-9.677771568E0
2.975522917E0,3.402593851E0,-9.463613629E-1,-8.894122124E0
2.994332552E0,8.685946465E-1,-2.317448616E0,-8.672785759E0
3.013142240E0,1.343569875E0,-3.050848961E0,-8.730213165E0
3.031951875E0,2.871387243E0,-1.611566067E0,-8.617751122E0
3.050761511E0,4.469792843E0,-4.570291340E-1,-9.004191399E0
3.069571198E0,5.899504185E0,-1.854437590E-1,-9.026923180E0
3.088380833E0,6.855436802E0,-4.187439755E-2,-8.599804878E0
3.107190521E0,6.733402729E0,2.081755698E-1,-8.070990562E0
3.126000156E0,6.373282909E0,2.727817893E-1,-8.462217331E0
3.144809844E0,6.326622963E0,-5.240281820E-1,-8.673981667E0
3.163619479E0,5.668596745E0,-1.361516118E0,-8.304290771E0
3.182429115E0,3.781856298E0,-1.058824062E0,-7.969295979E0
3.201238802E0,3.276970625E0,-3.242274821E-1,-7.668996811E0
3.220048438E0,3.890729666E0,7.357929349E-1,-7.637889862E0
3.238858125E0,5.898307800E0,1.532602906E0,-7.077969551E0
3.257667761E0,7.637889862E0,1.118644595E0,-7.075576782E0
3.276477448E0,6.452246189E0,1.403390527E0,-7.875975609E0
3.295287083E0,4.243670940E0,1.630708575E0,-9.263813019E0
3.314096719E0,4.785645485E0,1.124626622E-1,-8.997013092E0
3.332906406E0,5.971288681E0,-8.494520187E-2,-8.090133667E0
3.351716042E0,5.021338463E0,5.694918036E-1,-7.621140003E0
3.370525729E0,4.427918434E0,1.540977836E0,-8.027919769E0
3.389335365E0,4.338187218E0,1.837687731E0,-9.135796547E0
3.408145000E0,4.060619831E0,1.221535921E0,-9.226723671E0
3.426954688E0,3.822534084E0,9.810572863E-2,-8.562715530E0
3.445764323E0,3.536591768E0,-2.201396823E-1,-8.502895355E0
3.464574011E0,3.848855257E0,-3.373879790E-1,-8.602197647E0
3.483383646E0,4.768895626E0,-7.202396393E-1,-8.112865448E0
3.502193333E0,5.598008633E0,-1.361516118E0,-8.066205025E0
3.521002969E0,5.675775528E0,-1.312463164E0,-7.877171993E0
3.539812604E0,6.016752720E0,-1.627119422E0,-7.624729156E0
3.558622292E0,6.184250355E0,-7.118647099E-1,-7.454838753E0
3.577431927E0,6.459424496E0,9.296116233E-1,-8.484949112E0
3.596241615E0,7.249056339E0,1.244267821E0,-9.029315948E0
3.615051250E0,5.833701611E0,4.187439680E-1,-8.909674644E0
3.633860938E0,5.581258774E0,-2.644068897E-1,-7.921439171E0
3.652670573E0,6.199803352E0,-6.352944374E-1,-7.191628456E0
3.671480208E0,5.839683533E0,-1.320838094E0,-6.390032768E0
3.690289896E0,7.022934437E0,-6.412764788E-1,-6.740581512E0
3.709099531E0,7.686942577E0,-9.343972206E-1,-6.833901405E0
3.727909219E0,6.051448345E0,-9.032905698E-1,-6.613761902E0
3.746718854E0,5.862415314E0,-1.651047617E-1,-6.157928944E0
3.765528542E0,7.430910587E0,-4.187439755E-2,-6.106483459E0
3.784338177E0,7.844869137E0,5.647061467E-1,-6.508477688E0
3.803147813E0,7.604390144E0,8.338986635E-1,-7.276573658E0
3.821957500E0,7.197610378E0,-1.674975827E-2,-6.666403770E0
3.840767136E0,6.721438885E0,-1.878365725E-1,-6.221338749E0
3.859576823E0,6.892525673E0,3.912265003E-1,-6.281159401E0
3.878386458E0,7.106683254E0,3.649054468E-1,-6.692724705E0
3.897196146E0,7.485945702E0,-6.101697683E-2,-6.478567123E0
3.916005781E0,7.755138397E0,-6.400800347E-1,-6.041877270E0
3.934815417E0,8.501698494E0,-6.879364848E-1,-5.822933674E0
3.953625104E0,8.999405861E0,-2.715853751E-1,-5.998806477E0
3.972434740E0,7.655836105E0,-3.182454109E-1,-6.507281303E0
3.991244427E0,6.766902447E0,8.853443712E-2,-6.281159401E0
4.010054063E0,7.200003147E0,-4.163511395E-1,-6.388836384E0
4.028863698E0,7.106683254E0,-9.906286001E-1,-6.344569206E0
4.047673386E0,6.728617191E0,-8.721838593E-1,-6.125626087E0
4.066483021E0,6.868597507E0,-4.630111754E-1,-6.488138676E0
4.085292708E0,7.385447025E0,-5.862415433E-1,-6.612565517E0
4.104102344E0,8.231309891E0,-8.350951076E-1,-6.642475605E0
4.122912031E0,7.550551891E0,-2.093719721E0,-7.654639721E0
4.141721667E0,9.046066284E0,-2.221735716E0,-5.472385406E0
4.160531302E0,8.908478737E0,-1.962114573E0,-4.833501816E0
4.179340990E0,3.004188776E0,3.306880951E0,-5.799005508E0
4.198150625E0,2.367697954E0,-1.396211982E0,-9.672985077E0
4.216960313E0,8.000402451E0,-4.197010994E0,-9.221938133E0
4.235769948E0,9.596415520E0,-2.347358942E0,-2.675175667E0
4.254579636E0,7.415357590E0,-1.375872970E0,-2.020738840E0
4.273389271E0,4.382454872E0,-8.374879137E-3,-5.943771362E0
4.292198958E0,4.383651257E0,2.587837696E0,-6.860222340E0
4.311008594E0,7.445267677E0,3.948157430E-1,-1.783729553E1
4.329818281E0,9.596415520E0,-1.566102386E0,-1.083829021E1
4.348627917E0,7.852047443E0,-1.213161111E0,-2.793620348E0
4.367437552E0,6.329015732E0,-1.938186288E-1,-1.751546144E0
4.386247240E0,7.752745152E0,-9.092725813E-2,-6.053841114E0
4.405056875E0,8.775676727E0,-6.975077987E-1,-7.550551891E0
4.423866563E0,8.038687706E0,-7.429714203E-1,-7.110272408E0
4.442676198E0,6.947560310E0,-2.739782035E-1,-7.526623726E0
4.461485886E0,7.325626373E0,-3.613162339E-1,-6.191428661E0
4.480295521E0,7.545766354E0,-5.120640397E-1,-5.682953835E0
4.499105208E0,7.136593342E0,-2.560320199E-1,-6.195017815E0
4.517914844E0,6.967899323E0,-2.799602449E-1,-6.711867332E0
4.536724479E0,7.272984505E0,-5.156532526E-1,-6.732206345E0
4.555534167E0,7.477570534E0,-5.264210105E-1,-6.605386734E0
4.574343802E0,7.466803074E0,-3.744767308E-1,-6.388836384E0
4.593153490E0,6.808776855E0,-4.223332107E-1,-6.297909260E0
4.611963125E0,6.622136593E0,-5.994020700E-1,-6.598208427E0
4.630772813E0,6.708278179E0,-3.672982752E-1,-6.937989235E0
4.649582448E0,7.485945702E0,1.998006850E-1,-6.616154671E0
4.668392136E0,7.783852100E0,-1.098305583E0,-6.528816700E0
4.687201771E0,7.135396957E0,-2.644068897E-1,-7.283751965E0
4.706011406E0,6.600601196E0,1.758724600E-1,-6.381658077E0
4.724821094E0,5.962913990E0,-6.460621208E-2,-6.067001820E0
4.743630729E0,7.599604607E0,-8.315058947E-1,-6.427121639E0
4.762440417E0,8.031509399E0,-7.178468108E-1,-6.710670948E0
4.781250052E0,7.578069210E0,1.220339537E-1,-6.162714481E0
4.800059740E0,7.404589653E0,-1.172483116E-1,-6.361319065E0
4.818869375E0,7.020541668E0,7.704889178E-1,-6.028716564E0
4.837679063E0,6.892525673E0,8.733802438E-1,-5.764309883E0
4.856488698E0,7.630711555E0,-6.448656917E-1,-6.675975323E0
4.875298333E0,7.995616913E0,-1.712064624E0,-6.488138676E0
4.894108021E0,8.163114548E0,-1.848455548E0,-5.800201893E0
4.912917656E0,8.873783112E0,-1.813759565E0,-4.882554531E0
4.931727344E0,7.908278942E0,-1.278963685E0,-4.859822750E0
4.950536979E0,7.138986588E0,-1.328016520E0,-5.818148136E0
4.969346667E0,6.826723099E0,-1.274178028E0,-6.364908218E0
4.988156302E0,7.367500782E0,-2.157129526E0,-5.822933674E0
5.006965990E0,7.727620602E0,-2.705085993E0,-4.852644444E0
5.025775625E0,8.102097511E0,-2.707478762E0,-4.798805714E0
5.044585313E0,9.270991325E0,-2.244467735E0,-5.046463013E0
5.063394948E0,1.050209904E1,-2.587837696E0,-4.673182487E0
5.082204583E0,7.289734364E0,-6.279963017E0,-3.611965895E0
5.101014271E0,7.158128738E0,-5.328815937E0,-2.002792597E0
5.119823906E0,8.191828728E0,-2.280359983E0,-9.128618240E-1
5.138633594E0,9.254241943E0,-1.735992789E0,-3.845266104E0
5.157443229E0,9.694520950E0,-6.221338734E-2,-5.852844238E0
5.176252917E0,1.003310490E1,8.458628058E-1,-5.234299660E0
5.195062552E0,9.407382011E0,-3.074777126E-1,-4.277170658E0
5.213872240E0,7.864011765E0,-9.846464992E-1,-3.131008387E0
5.232681875E0,8.611768723E0,-2.374876499E0,-2.252842426E0
5.251491563E0,9.209974289E0,-3.365504980E0,-2.726621389E0
5.270301198E0,8.918049812E0,-3.637090445E0,-2.690729141E0
5.289110886E0,8.693124771E0,-3.333201885E0,-2.622533560E0
5.307920521E0,8.907281876E0,-2.989831924E0,-2.769692183E0
5.326730208E0,9.163313866E0,-2.986242771E0,-2.823530674E0
5.345539844E0,9.119047165E0,-3.169293642E0,-3.122633457E0
5.364349531E0,8.782855988E0,-3.259024382E0,-3.202793121E0
5.383159219E0,8.669196129E0,-3.306880951E0,-2.824727058E0
5.401968854E0,8.609375954E0,-3.148954630E0,-2.885744095E0
5.420778542E0,8.547162056E0,-2.890529871E0,-3.007778168E0
5.439588177E0,8.755337715E0,-2.665604353E0,-3.279363394E0
5.458397865E0,8.812766075E0,-2.544766903E0,-3.315255880E0
5.477207500E0,8.644071579E0,-2.810370207E0,-3.412165165E0
5.496017188E0,8.323433876E0,-3.035295486E0,-3.255435228E0
5.514826823E0,8.524430275E0,-2.849851847E0,-3.304488182E0
5.533636511E0,8.774480820E0,-2.520838737E0,-3.471985579E0
5.552446146E0,8.897710800E0,-2.116451740E0,-3.877569199E0
5.571255833E0,8.848658562E0,-1.889133453E0,-4.016352654E0
5.590065521E0,8.859425545E0,-1.678565025E0,-4.266402721E0
5.608875156E0,8.847461700E0,-1.587637782E0,-4.353740692E0
5.627684844E0,8.714659691E0,-1.562513232E0,-4.425525665E0
5.646494479E0,9.098708153E0,-1.051645517E0,-4.609772682E0
5.665304167E0,9.305686951E0,-3.840480447E-1,-4.971088886E0
5.684113802E0,8.760123253E0,2.392822690E-2,-5.480760098E0
5.702923490E0,9.219545364E0,-5.850451589E-1,-6.151947021E0
5.721733177E0,8.547162056E0,-2.895315289E-1,-6.070590973E0
5.740542813E0,7.972885132E0,-1.322034478E0,-5.089533806E0
5.759352500E0,7.976474285E0,-1.635494232E0,-4.585844517E0
5.778162136E0,8.139185905E0,-8.291130662E-1,-5.016552448E0
5.796971823E0,7.532605648E0,-1.076770186E0,-5.807380676E0
5.815781511E0,6.439085960E0,-2.328216314E0,-6.979863644E0
5.834591146E0,6.004788399E0,-3.140579700E0,-6.684350014E0
5.853400833E0,5.583651543E0,-3.147758245E0,-5.799005508E0
5.872210469E0,5.563312531E0,-1.548156261E0,-6.026323795E0
5.891020156E0,4.947160721E0,-7.525427341E-1,-6.539584160E0
5.909829844E0,4.112065792E0,-9.128618240E-1,-7.557730198E0
5.928639479E0,5.112265587E0,-1.484746456E0,-7.916653633E0
5.947449167E0,6.577869415E0,-1.397408366E0,-7.574480057E0
5.966258854E0,7.663014412E0,-4.809573591E-1,-7.531409264E0
5.985068490E0,7.581658363E0,2.416750938E-1,-7.874779224E0
6.003878177E0,6.833901405E0,7.657032460E-2,-7.544569969E0
6.022687865E0,5.298905849E0,1.316052489E-2,-7.548159122E0
6.041497500E0,5.545366287E0,4.833501875E-1,-7.763513088E0
6.060307188E0,5.923432350E0,2.165504545E-1,-7.825726509E0
6.079116875E0,6.508477688E0,-6.233302951E-1,-7.271788120E0
6.097926563E0,7.197610378E0,-1.098305583E0,-7.295716286E0
6.116736198E0,8.048258781E0,-8.446664214E-1,-7.144968510E0
6.135545886E0,7.545766354E0,-1.104287624E0,-7.361518860E0
6.154355573E0,7.025327206E0,8.135596663E-2,-7.801798344E0
6.173165208E0,6.616154671E0,1.686939895E-1,-7.289734364E0
6.191974896E0,6.177071571E0,-5.479564071E-1,-7.773084164E0
6.210784583E0,5.800201893E0,-8.877372146E-1,-7.232306480E0
6.229594271E0,5.588437080E0,-1.759921074E0,-6.586244106E0
6.248403906E0,1.795813441E0,-1.555334687E0,-4.010370731E0
6.267213594E0,2.685943365E0,-1.028913707E-1,-5.624329567E0
6.286023281E0,8.982656479E0,-1.113858938E0,-1.010488987E1
6.304832969E0,1.164586735E1,-1.459621787E-1,-9.809376717E0
6.323642604E0,7.680960655E0,8.027920127E-1,-6.915257454E0
6.342452292E0,6.586244106E0,1.111466169E0,-5.942574978E0
6.361261979E0,7.127022266E0,6.927221417E-1,-6.413960934E0
6.380071667E0,7.246663570E0,5.300102234E-1,-6.533602238E0
6.398881354E0,7.530212879E0,5.886343718E-1,-6.683153629E0
6.417690990E0,8.086544037E0,3.086741269E-1,-6.424728870E0
6.436500677E0,7.947760582E0,1.009771109E0,-6.368497372E0
6.455310365E0,7.533802032E0,4.773681164E-1,-6.330212116E0
6.474120052E0,6.547959328E0,8.470591903E-1,-6.671189308E0
6.492929740E0,7.288537979E0,-6.317051649E-1,-6.648457527E0
6.511739427E0,6.288337708E0,-3.457628787E-1,-6.685546398E0
6.530549063E0,6.293123722E0,-1.633101463E0,-7.484749317E0
6.549358750E0,2.225325108E0,-3.393022537E0,-4.393222332E0
6.568168438E0,1.150469112E1,-6.735795975E0,-6.775277138E0
6.586978125E0,1.011565781E1,1.054038405E0,-5.678168297E0
6.605787813E0,7.115057945E0,3.133401155E0,-5.126622677E0
6.624597500E0,7.324429989E0,2.891726255E0,-5.797809124E0
6.643407188E0,8.054241180E0,3.189632654E0,-5.895915031E0
6.662216875E0,7.374679565E0,3.912265062E0,-5.446064472E0
6.681026511E0,6.686742783E0,2.537588358E0,-5.462814331E0
6.699836198E0,8.890532494E0,9.068797827E-1,-5.659025669E0
6.718645886E0,9.269794464E0,9.128618240E-1,-5.099104881E0
6.737455573E0,7.712067604E0,1.184447169E0,-5.174479008E0
6.756265261E0,7.867600918E0,8.973084688E-1,-5.548955917E0
6.775074948E0,8.158329010E0,9.738788009E-1,-5.430510998E0
6.793884636E0,8.076972961E0,1.044467092E0,-5.307280540E0
6.812694323E0,7.734799385E0,1.202393413E0,-5.300102234E0
6.831504011E0,8.102097511E0,9.104689956E-1,-5.386243820E0
6.850313698E0,8.109275818E0,8.685946465E-1,-5.440082073E0
6.869123386E0,8.055437088E0,1.160519004E0,-5.385047436E0
6.887933073E0,8.055437088E0,9.284151793E-1,-5.434100151E0
6.906742761E0,7.976474285E0,9.918249846E-1,-5.389832973E0
6.925552448E0,8.017151833E0,1.006181955E0,-5.402993679E0
6.944362136E0,8.002795219E0,9.631111026E-1,-5.407779217E0
6.963171823E0,7.976474285E0,9.990034699E-1,-5.413761139E0
6.981981511E0,8.041080475E0,9.942178130E-1,-5.428118229E0
7.000791198E0,8.051848412E0,1.006181955E0,-5.374279499E0
7.019600886E0,8.029116631E0,1.001396298E0,-5.297709465E0
7.038410573E0,7.984848976E0,1.015753269E0,-5.308476925E0
7.057220261E0,8.020741463E0,1.026520967E0,-5.358726501E0
7.076029948E0,8.033902168E0,1.054038405E0,-5.394618511E0
7.094839636E0,8.061419487E0,1.051645517E0,-5.369493961E0
7.113649323E0,8.108079910E0,1.010967612E0,-5.369493961E0
7.132459011E0,8.070990562E0,9.906286001E-1,-5.343173027E0
7.151268698E0,8.031509399E0,9.834501147E-1,-5.344369411E0
7.170078386E0,8.069794655E0,9.882357717E-1,-5.353940487E0
7.188888073E0,8.122436523E0,9.810572863E-1,-5.363512039E0
7.207697761E0,8.091329575E0,9.822536707E-1,-5.345565796E0
7.226507500E0,8.108079910E0,9.738788009E-1,-5.325226784E0
7.245317188E0,8.121239662E0,1.015753269E0,-5.307280540E0
7.264126875E0,8.059026718E0,1.069591761E0,-5.335994720E0
7.282936563E0,8.035098076E0,1.128215909E0,-5.365904808E0
7.301746250E0,8.020741463E0,1.188036442E0,-5.362315655E0
7.320555938E0,8.007580757E0,1.150947690E0,-5.402993679E0
7.339365625E0,8.005187988E0,1.106680512E0,-5.484349728E0
7.358175313E0,7.965706348E0,1.089930773E0,-5.486742496E0
7.376985052E0,7.953742504E0,1.063609719E0,-5.479563713E0
7.395794740E0,8.019545555E0,1.021735311E0,-5.472385406E0
7.414604427E0,7.976474285E0,1.013360381E0,-5.389832973E0
7.433414115E0,7.974081516E0,9.619147182E-1,-5.362315655E0
7.452223802E0,7.998009682E0,9.631111026E-1,-5.368297577E0
7.471033490E0,8.000402451E0,9.774680734E-1,-5.373083115E0
7.489843229E0,8.042277336E0,1.009771109E0,-5.312066078E0
7.508652917E0,8.056633949E0,1.034895778E0,-5.248656273E0
7.527462604E0,8.039883614E0,1.055234790E0,-5.290530682E0
7.546272292E0,8.063812256E0,1.105484009E0,-5.344369411E0
7.565081979E0,8.042277336E0,1.093519926E0,-5.383851051E0
7.583891719E0,8.025527000E0,1.083948612E0,-5.417350292E0
7.602701406E0,8.020741463E0,1.091127157E0,-5.520241737E0
7.621511094E0,8.005187988E0,1.019342422E0,-5.606383324E0
7.640320781E0,7.917850018E0,9.439685345E-1,-5.706882000E0
7.659130521E0,8.073383331E0,1.030110121E0,-5.566901684E0
7.677940208E0,7.856832981E0,9.954141974E-1,-5.515456200E0
7.696749896E0,7.841279984E0,8.458628058E-1,-5.505885124E0
7.715559583E0,7.944170952E0,6.783652306E-1,-5.612365723E0
7.734369323E0,8.179863930E0,4.402793646E-1,-5.607579708E0
7.753179011E0,8.163114548E0,4.630111754E-1,-5.291727066E0
7.771988698E0,7.788637638E0,1.170090318E0,-4.754538536E0
7.790798438E0,7.728816986E0,1.898704767E0,-4.585844517E0
7.809608125E0,8.020741463E0,1.867598057E0,-4.905286312E0
7.828417813E0,8.176275253E0,1.696511269E0,-5.266602516E0
7.847227500E0,7.842476368E0,1.459621787E0,-5.410171986E0
7.866037240E0,7.683353424E0,1.191625714E0,-5.562116146E0
7.884846927E0,7.764709473E0,1.274178028E0,-5.680561066E0
7.903656667E0,7.808976650E0,1.410568953E0,-5.632704735E0
7.922466354E0,7.816154957E0,1.387837172E0,-5.503491879E0
7.941276042E0,7.786244869E0,1.386640668E0,-5.655436516E0
7.960085781E0,7.853243828E0,1.422533035E0,-5.642275810E0
7.978895469E0,7.840083599E0,1.484746456E0,-5.747560024E0
7.997705156E0,7.780262947E0,1.429711580E0,-5.855237007E0
8.016514896E0,7.865208149E0,1.282552958E0,-6.058627129E0
8.035324583E0,7.859225750E0,1.137787223E0,-6.055037498E0
8.054134271E0,7.817351341E0,1.130608678E0,-6.077769279E0
8.072944011E0,7.690532207E0,1.210768223E0,-5.898307800E0
8.091753698E0,7.578069210E0,1.250249863E0,-5.860022545E0
8.110563386E0,7.786244869E0,1.044467092E0,-6.180660725E0
8.129373125E0,7.866404533E0,1.089930773E0,-6.138786316E0
8.148182813E0,7.783852100E0,1.337587833E0,-6.039484501E0
8.166992552E0,7.670193195E0,1.440479279E0,-6.004788399E0
8.185802240E0,7.835297585E0,1.471585870E0,-6.010770321E0
8.204611979E0,7.869993687E0,1.509871125E0,-5.978467464E0
8.223421667E0,7.539783955E0,1.572084427E0,-5.724828243E0
8.242231406E0,7.361518860E0,1.509871125E0,-5.553741455E0
8.261041094E0,7.513463020E0,1.371087432E0,-5.663811207E0
8.279850781E0,7.618747234E0,1.281356573E0,-5.828916073E0
8.298660521E0,7.627122402E0,1.301695466E0,-6.022734642E0
8.317470208E0,7.625925541E0,1.220339537E0,-6.017949104E0
8.336279948E0,7.598408222E0,1.146162033E0,-5.869594097E0
8.355089636E0,7.648657799E0,1.118644595E0,-5.821737289E0
8.373899375E0,7.680960655E0,1.192822099E0,-5.781059742E0
8.392709063E0,7.680960655E0,1.176072359E0,-5.777470112E0
8.411518802E0,7.648657799E0,1.166501045E0,-5.806184292E0
8.430328490E0,7.627122402E0,1.256231904E0,-5.803791523E0
8.449138229E0,7.646264553E0,1.266999602E0,-5.818148136E0
8.467947917E0,7.639086246E0,1.232303619E0,-5.809773445E0
8.486757656E0,7.613961697E0,1.203589797E0,-5.800201893E0
8.505567344E0,7.539783955E0,1.234696507E0,-5.813362598E0
8.524377083E0,7.597211838E0,1.277767301E0,-5.843272686E0
8.543186771E0,7.695317745E0,1.283749342E0,-5.903093338E0
8.561996511E0,7.707281590E0,1.268195987E0,-5.924628735E0
8.580806198E0,7.680960655E0,1.207179070E0,-5.980860233E0
8.599615938E0,7.611568928E0,1.176072359E0,-6.013163090E0
8.618425677E0,7.634300709E0,1.111466169E0,-5.905486107E0
8.637235365E0,7.542177200E0,1.113858938E0,-6.050251961E0
8.656045104E0,7.433303356E0,1.125823021E0,-6.116054535E0
8.674854792E0,7.427321434E0,1.109073281E0,-6.126822472E0
8.693664531E0,7.487142086E0,1.138983607E0,-6.105287075E0
8.712474271E0,7.495516777E0,1.182054400E0,-6.041877270E0
8.731283958E0,7.526623726E0,1.179661512E0,-5.980860233E0
8.750093698E0,7.601997375E0,1.185643673E0,-6.010770321E0
8.768903386E0,7.642675400E0,1.189232826E0,-6.013163090E0
8.787713125E0,7.594819069E0,1.172483087E0,-5.941378593E0
8.806522813E0,7.586444378E0,1.189232826E0,-5.921039581E0
8.825332552E0,7.625925541E0,1.198804140E0,-5.937789440E0
8.844142292E0,7.685746193E0,1.209571838E0,-5.964110374E0
8.862951979E0,7.653443336E0,1.183250785E0,-5.980860233E0
8.881761719E0,7.572087288E0,1.149751306E0,-5.986842155E0
8.900571458E0,7.520641804E0,1.223928809E0,-5.947360516E0
8.919381146E0,7.441678524E0,1.231107235E0,-5.886343479E0
8.938190886E0,7.568498135E0,1.167697430E0,-6.034698486E0
8.957000573E0,7.537391186E0,1.146162033E0,-6.272784710E0
8.975810313E0,7.484749317E0,1.094716311E0,-6.460621357E0
8.994620052E0,7.416553974E0,1.116251707E0,-6.337390900E0
9.013429740E0,7.276573658E0,1.149751306E0,-6.221338749E0
9.032239479E0,7.286144733E0,1.160519004E0,-6.379265308E0
9.051049219E0,7.308876991E0,1.138983607E0,-6.632904530E0
9.069858906E0,7.263412952E0,1.164108157E0,-6.375676155E0
9.088668646E0,7.209574699E0,1.148554921E0,-6.068198204E0
9.107478386E0,7.128218651E0,1.140179992E0,-6.095715523E0
9.126288073E0,7.245467186E0,1.105484009E0,-5.976074696E0
9.145097813E0,7.530212879E0,1.050449133E0,-5.886343479E0
9.163907552E0,7.745566845E0,1.075573802E0,-5.777470112E0
9.182717240E0,7.722835064E0,1.159322619E0,-5.846862316E0
9.201526979E0,7.751548767E0,1.137787223E0,-5.788238049E0
9.220336719E0,7.792226791E0,1.075573802E0,-5.722435474E0
9.239146458E0,7.788637638E0,9.690931439E-1,-5.676971912E0
9.257956146E0,7.787441254E0,9.918249846E-1,-5.771488190E0
9.276765886E0,7.795815945E0,1.062413216E0,-5.971288681E0
9.295575625E0,7.838887215E0,1.040877819E0,-5.976074696E0
9.314385313E0,7.841279984E0,1.006181955E0,-6.035895348E0
9.333195052E0,7.834101200E0,1.143769264E0,-6.051448345E0
9.352004792E0,7.816154957E0,1.207179070E0,-5.983253002E0
9.370814531E0,7.679764271E0,1.302891970E0,-5.860022545E0
9.389624219E0,7.624729156E0,1.332802176E0,-5.758327484E0
9.408433958E0,7.515855789E0,1.264606714E0,-5.799005508E0
9.427243698E0,7.332805157E0,1.117448211E0,-5.925825119E0
9.446053438E0,7.459624767E0,1.131805062E0,-5.992824078E0
9.464863125E0,7.487142086E0,1.219143152E0,-5.892325878E0
9.483672865E0,7.585247993E0,1.112662554E0,-5.777470112E0
9.502482604E0,7.573283672E0,1.115055323E0,-5.807380676E0
9.521292344E0,7.634300709E0,1.244267821E0,-5.942574978E0
9.540102031E0,7.578069210E0,1.162911773E0,-5.807380676E0
9.558911771E0,7.655836105E0,1.014556766E0,-5.592026711E0
9.577721511E0,7.801798344E0,8.841479421E-1,-5.650650501E0
9.596531250E0,8.090133667E0,1.356730461E0,-5.870790482E0
9.615340990E0,7.674978733E0,1.526620865E0,-6.062216282E0
9.634150677E0,8.395217896E0,8.386843204E-1,-6.136393547E0
9.652960417E0,8.657232285E0,9.164510965E-1,-5.752345562E0
9.671770156E0,7.797012806E0,1.173679471E0,-5.319244862E0
9.690579896E0,7.636693478E0,9.942178130E-1,-5.411368370E0
9.709389583E0,7.582854748E0,7.046862841E-1,-5.726024628E0
9.728199323E0,7.430910587E0,5.874379873E-1,-5.946164131E0
9.747009063E0,7.534998417E0,8.075776696E-1,-6.078966141E0
9.765818802E0,7.534998417E0,1.440479279E0,-6.087340832E0
9.784628542E0,7.452445984E0,1.755135417E0,-6.061019897E0
9.803438281E0,7.412964344E0,1.775474429E0,-6.056233883E0
9.822247969E0,7.345965385E0,1.634297848E0,-6.179464340E0
9.841057708E0,7.229913712E0,1.563709617E0,-6.241677761E0
9.859867448E0,7.302894592E0,1.372283816E0,-6.156732559E0
9.878677188E0,7.515855789E0,1.332802176E0,-6.028716564E0
9.897486927E0,7.477570534E0,1.127019525E0,-5.845665932E0
9.916296667E0,7.593622684E0,8.685946465E-1,-5.850451469E0
9.935106354E0,7.666603565E0,9.212366939E-1,-5.856433392E0
9.953916094E0,7.606783390E0,9.978070259E-1,-5.782256126E0
9.972725833E0,7.489534855E0,9.176474810E-1,-5.656632900E0
9.991535573E0,7.298109055E0,8.075776696E-1,-5.739185333E0
1.001034531E1,7.319644451E0,7.274180651E-1,-6.035895348E0
1.002915505E1,7.601997375E0,6.628118753E-1,-6.269195557E0
1.004796479E1,7.892725468E0,6.221339107E-1,-6.009573936E0
1.006677448E1,7.755138397E0,6.520441771E-1,-5.666203976E0
1.008558422E1,7.584051132E0,5.862415433E-1,-5.730810165E0
1.010439396E1,7.561319351E0,4.821537733E-1,-6.354140759E0
1.012320370E1,7.891529083E0,9.583254457E-1,-7.030112743E0
1.014201344E1,8.184649467E0,1.179661512E0,-7.075576782E0
1.016082318E1,8.026723862E0,1.147358418E0,-7.046862602E0
1.017963292E1,7.683353424E0,1.269392371E0,-7.014559746E0
1.019844260E1,7.289734364E0,1.324427366E0,-6.650850773E0
1.021725234E1,7.111468792E0,1.262213945E0,-6.312266350E0
1.023606208E1,7.014559746E0,1.014556766E0,-5.900700569E0
1.025487182E1,6.740581512E0,8.195417523E-1,-5.704489231E0
1.027368156E1,6.433103561E0,8.554341197E-1,-5.702096462E0
1.029249130E1,6.396014690E0,7.597211599E-1,-5.638686657E0
1.031130104E1,6.733402729E0,6.305087805E-1,-5.962913990E0
1.033011078E1,6.963113785E0,5.898307562E-1,-6.142375946E0
1.034892052E1,7.298109055E0,5.479564071E-1,-6.279963017E0
1.036773021E1,7.630711555E0,4.881358147E-1,-6.802794933E0
1.038653995E1,7.765905857E0,4.522434771E-1,-6.708278179E0
1.040534969E1,8.140382767E0,6.592226624E-1,-6.605386734E0
1.042415943E1,8.115258217E0,1.277767301E0,-6.272784710E0
1.044296917E1,7.922635555E0,1.360319614E0,-6.272784710E0
1.046177891E1,7.962117195E0,1.105484009E0,-6.228517532E0
1.048058865E1,7.707281590E0,1.068395257E0,-6.124429703E0
1.049939839E1,7.537391186E0,1.012163997E0,-5.906682491E0
1.051820813E1,7.354340553E0,9.355936646E-1,-5.952146530E0
1.053701787E1,7.178467751E0,8.638089895E-1,-6.058627129E0
1.055582760E1,7.176074982E0,8.039883971E-1,-6.080162525E0
1.057463729E1,7.091129780E0,6.687939167E-1,-6.061019897E0
1.059344703E1,6.991827965E0,6.293123364E-1,-6.072983742E0
1.061225677E1,7.020541668E0,7.836494446E-1,-6.216553211E0
1.063106651E1,7.232306480E0,8.279166222E-1,-6.394818306E0
1.064987625E1,7.330412388E0,8.243274093E-1,-6.472585201E0
1.066868599E1,7.281359196E0,8.745766878E-1,-6.400800705E0
1.068749573E1,7.324429989E0,9.487541914E-1,-6.412764549E0
1.070630547E1,7.495516777E0,9.236295223E-1,-6.581458569E0
1.072511521E1,7.554141045E0,9.068797827E-1,-6.598208427E0
1.074392495E1,7.463213921E0,8.662018180E-1,-6.485745907E0
1.076273469E1,7.393822193E0,7.944171429E-1,-6.398407936E0
1.078154443E1,7.377072334E0,7.106683254E-1,-6.387639999E0
1.080035417E1,7.368697166E0,7.633104324E-1,-6.305087566E0
1.081916391E1,7.274180889E0,8.207381964E-1,-6.271588326E0
1.083797365E1,7.237092018E0,6.963114142E-1,-6.259624004E0
1.085678339E1,7.334001541E0,7.034898400E-1,-6.212964058E0
1.087559307E1,7.322037220E0,7.848458290E-1,-6.193821430E0
1.089440281E1,7.308876991E0,8.458628058E-1,-6.281159401E0
1.091321255E1,7.272984505E0,8.135597110E-1,-6.296712875E0
1.093202229E1,7.316055298E0,8.171489239E-1,-6.301498413E0
1.095083203E1,7.359126091E0,8.422735929E-1,-6.251249313E0
1.096964177E1,7.213163853E0,8.291130662E-1,-6.230910301E0
1.098845151E1,7.176074982E0,8.997012973E-1,-6.210571289E0
1.100726125E1,7.345965385E0,9.978070259E-1,-6.378068924E0
1.102607099E1,7.441678524E0,9.631111026E-1,-6.691528320E0
1.104488073E1,7.402196884E0,8.901300430E-1,-6.808776855E0
1.106369047E1,7.385447025E0,7.609176040E-1,-6.648457527E0
1.108250021E1,7.325626373E0,7.369893789E-1,-6.427121639E0
1.110130995E1,7.271788120E0,7.525427341E-1,-6.343372822E0
1.112011969E1,7.295716286E0,7.513462901E-1,-6.300302029E0
1.113892943E1,7.307680130E0,7.310073376E-1,-6.222535133E0
1.115773917E1,7.361518860E0,7.238288522E-1,-6.139982700E0
1.117654891E1,7.381857872E0,7.944171429E-1,-6.119643688E0
1.119535865E1,7.460821152E0,7.764709592E-1,-6.192625046E0
1.121416839E1,7.473981380E0,7.645068169E-1,-6.311069489E0
1.123297812E1,7.500302792E0,8.063812256E-1,-6.374479294E0
1.125178786E1,7.493124008E0,8.015955687E-1,-6.436692715E0
1.127059760E1,7.438089371E0,7.896314859E-1,-6.470192432E0
1.128940734E1,7.385447025E0,7.668996453E-1,-6.440282345E0
1.130821708E1,7.282555580E0,7.274180651E-1,-6.391229153E0
1.132702677E1,7.255038261E0,6.951149702E-1,-6.338587284E0
1.134583651E1,7.246663570E0,6.460621357E-1,-6.282355785E0
1.136464630E1,7.198806763E0,6.652047038E-1,-6.257231236E0
1.138345599E1,7.173682213E0,7.417750359E-1,-6.257231236E0
1.140226573E1,7.219145775E0,7.345965505E-1,-6.301498413E0
1.142107547E1,7.305287361E0,7.010970116E-1,-6.375676155E0
1.143988521E1,7.361518860E0,6.987041831E-1,-6.419943333E0
1.145869495E1,7.383054256E0,6.903293133E-1,-6.431907177E0
1.147750469E1,7.360322475E0,7.130611539E-1,-6.411568165E0
1.149631443E1,7.421339512E0,7.010970116E-1,-6.440282345E0
1.151512417E1,7.428517818E0,6.735795736E-1,-6.437889099E0
1.153393391E1,7.377072334E0,6.915257573E-1,-6.319444656E0
1.155274365E1,7.343572617E0,7.046862841E-1,-6.210571289E0
1.157155339E1,7.359126091E0,7.202396393E-1,-6.155536175E0
1.159036313E1,7.359126091E0,7.633104324E-1,-6.144768715E0
1.160917287E1,7.401000500E0,7.872386575E-1,-6.171089649E0
1.162798260E1,7.432106972E0,7.549355626E-1,-6.236892223E0
1.164679234E1,7.430910587E0,7.322037220E-1,-6.262016773E0
1.166560208E1,7.430910587E0,7.214360237E-1,-6.311069489E0
1.168441182E1,7.428517818E0,7.046862841E-1,-6.331408501E0
1.170322156E1,7.377072334E0,7.094719410E-1,-6.338587284E0
1.172203130E1,7.361518860E0,7.130611539E-1,-6.326622963E0
1.174084104E1,7.348358154E0,7.274180651E-1,-6.314659119E0
1.175965078E1,7.355536938E0,7.262216806E-1,-6.319444656E0
1.177846052E1,7.344769001E0,6.939185858E-1,-6.295516491E0
1.179727026E1,7.368697166E0,7.010970116E-1,-6.291927338E0
1.181608000E1,7.375875950E0,7.274180651E-1,-6.282355785E0
1.183488974E1,7.392625332E0,7.214360237E-1,-6.279963017E0
1.185369948E1,7.399804115E0,7.274180651E-1,-6.266802311E0
1.187250922E1,7.383054256E0,7.489534616E-1,-6.234499454E0
1.189131896E1,7.359126091E0,7.357929349E-1,-6.246463299E0
1.191012870E1,7.384250641E0,7.214360237E-1,-6.282355785E0
1.192893844E1,7.385447025E0,7.417750359E-1,-6.288337708E0
1.194774818E1,7.380661488E0,7.226324677E-1,-6.279963017E0
1.196655792E1,7.355536938E0,7.118647099E-1,-6.253642082E0
1.198536766E1,7.356733322E0,7.345965505E-1,-6.241677761E0
1.200417740E1,7.408178806E0,7.369893789E-1,-6.285944939E0
1.202298714E1,7.432106972E0,7.286145091E-1,-6.324230194E0
1.204179688E1,7.433303356E0,7.166503668E-1,-6.326622963E0
1.206060662E1,7.417750359E0,6.867401004E-1,-6.331408501E0
1.207941635E1,7.389036179E0,6.735795736E-1,-6.307480335E0
1.209822609E1,7.362715244E0,6.843472719E-1,-6.325426579E0
1.211703583E1,7.324429989E0,6.975077987E-1,-6.318248272E0
1.213584557E1,7.347161770E0,7.058826685E-1,-6.308676720E0
1.215465531E1,7.384250641E0,7.142575383E-1,-6.340980053E0
1.217346505E1,7.368697166E0,6.963114142E-1,-6.269195557E0
1.219227479E1,7.375875950E0,8.063812256E-1,-6.288337708E0
1.221108453E1,7.389036179E0,7.369893789E-1,-6.193821430E0
1.222989427E1,7.373483181E0,7.310073376E-1,-6.184250355E0
1.224870401E1,7.360322475E0,7.381857634E-1,-6.181857109E0
1.226751375E1,7.417750359E0,7.046862841E-1,-6.236892223E0
1.228632349E1,7.290930748E0,7.094719410E-1,-6.266802311E0
1.230513323E1,7.282555580E0,7.094719410E-1,-6.269195557E0
1.232394297E1,7.296912670E0,5.934200287E-1,-6.362515450E0
1.234275271E1,7.306483746E0,6.412764788E-1,-6.504888535E0
1.236156245E1,7.271788120E0,6.269195080E-1,-6.494120598E0
1.238037219E1,7.195217609E0,6.257231236E-1,-6.417550564E0
1.239918193E1,7.235895634E0,6.149554253E-1,-6.409175396E0
1.241799167E1,7.300501823E0,6.185446382E-1,-6.451049805E0
1.243680141E1,7.313662529E0,5.946164131E-1,-6.563512325E0
1.245561115E1,7.264609337E0,5.754738450E-1,-6.559923172E0
1.247442089E1,7.283751965E0,5.682953596E-1,-6.510870457E0
1.249323062E1,7.293323517E0,5.659025311E-1,-6.473781586E0
1.251204036E1,7.255038261E0,5.790630579E-1,-6.502495766E0
1.253085010E1,7.259823799E0,5.718846321E-1,-6.541976929E0
1.254965984E1,7.238288403E0,5.635097623E-1,-6.546762943E0
1.256846958E1,7.249056339E0,5.491527915E-1,-6.500102520E0
1.258727932E1,7.231110096E0,5.790630579E-1,-6.476174355E0
1.260608906E1,7.249056339E0,5.742774606E-1,-6.494120598E0
1.262489880E1,7.270591736E0,5.778666735E-1,-6.498906136E0
1.264370854E1,7.264609337E0,5.970092416E-1,-6.452246189E0
1.266251828E1,7.284948349E0,6.137589812E-1,-6.489335060E0
1.268132802E1,7.290930748E0,5.910272002E-1,-6.543173313E0
1.270013776E1,7.263412952E0,5.730810165E-1,-6.494120598E0
1.271894750E1,7.237092018E0,6.233302951E-1,-6.336194515E0
1.273775724E1,7.277770042E0,6.245267391E-1,-6.271588326E0
1.275656698E1,7.334001541E0,6.472585201E-1,-6.271588326E0
1.277537672E1,7.338787079E0,6.675975323E-1,-6.273981094E0
1.279418646E1,7.359126091E0,6.364908218E-1,-6.275177479E0
1.281299620E1,7.365108013E0,6.149554253E-1,-6.318248272E0
1.283180594E1,7.363911629E0,5.790630579E-1,-6.372086525E0
1.285061568E1,7.350750923E0,5.790630579E-1,-6.392425537E0
1.286942542E1,7.345965385E0,6.017948985E-1,-6.394818306E0
1.288823516E1,7.343572617E0,6.340979934E-1,-6.396014690E0
1.290704490E1,7.331608772E0,6.568298340E-1,-6.397211552E0
1.292585464E1,7.344769001E0,6.831508875E-1,-6.378068924E0
1.294466438E1,7.353144169E0,6.711867452E-1,-6.361319065E0
1.296347412E1,7.362715244E0,6.675975323E-1,-6.336194515E0
1.298228385E1,7.344769001E0,6.520441771E-1,-6.313462734E0
1.300109359E1,7.336394310E0,6.460621357E-1,-6.306283951E0
1.301990333E1,7.326822758E0,6.376872063E-1,-6.313462734E0
1.303871313E1,7.328019142E0,6.221339107E-1,-6.352943897E0
1.305752281E1,7.325626373E0,6.424728632E-1,-6.366104603E0
1.307633255E1,7.318448067E0,6.340979934E-1,-6.372086525E0
1.309514229E1,7.318448067E0,6.269195080E-1,-6.370890141E0
1.311395208E1,7.334001541E0,6.448656917E-1,-6.367300987E0
1.313276177E1,7.324429989E0,6.388836503E-1,-6.363711834E0
1.315157156E1,7.341179848E0,6.424728632E-1,-6.349354744E0
1.317038130E1,7.360322475E0,6.436693072E-1,-6.351747513E0
1.318919104E1,7.351947784E0,6.376872063E-1,-6.356533527E0
1.320800078E1,7.354340553E0,6.340979934E-1,-6.356533527E0
1.322681052E1,7.362715244E0,6.329016089E-1,-6.345765591E0
1.324562026E1,7.348358154E0,6.352944374E-1,-6.345765591E0
1.326443000E1,7.334001541E0,6.460621357E-1,-6.330212116E0
1.328323974E1,7.314858913E0,6.484549642E-1,-6.339783669E0
1.330204948E1,7.341179848E0,6.556333899E-1,-6.355337143E0
1.332085922E1,7.336394310E0,6.317051649E-1,-6.367300987E0
1.333966896E1,7.323233604E0,6.197410822E-1,-6.357729912E0
1.335847870E1,7.338787079E0,6.628118753E-1,-6.355337143E0
1.337728844E1,7.362715244E0,6.412764788E-1,-6.375676155E0
1.339609818E1,7.351947784E0,6.305087805E-1,-6.392425537E0
1.341490792E1,7.338787079E0,6.592226624E-1,-6.344569206E0
1.343371766E1,7.345965385E0,6.652047038E-1,-6.339783669E0
1.345252740E1,7.332805157E0,6.412764788E-1,-6.349354744E0
1.347133714E1,7.341179848E0,6.245267391E-1,-6.340980053E0
1.349014688E1,7.334001541E0,6.317051649E-1,-6.334998131E0
1.350895662E1,7.338787079E0,6.089733839E-1,-6.331408501E0
1.352776635E1,7.344769001E0,6.113662124E-1,-6.337390900E0
1.354657609E1,7.359126091E0,6.305087805E-1,-6.349354744E0
1.356538583E1,7.350750923E0,6.568298340E-1,-6.348158360E0
1.358419557E1,7.345965385E0,6.448656917E-1,-6.363711834E0
1.360300531E1,7.344769001E0,6.257231236E-1,-6.364908218E0
1.362181505E1,7.326822758E0,6.293123364E-1,-6.355337143E0
1.364062479E1,7.330412388E0,6.364908218E-1,-6.339783669E0
1.365943453E1,7.344769001E0,6.388836503E-1,-6.362515450E0
1.367824427E1,7.339983463E0,6.376872063E-1,-6.348158360E0
1.369705401E1,7.341179848E0,6.376872063E-1,-6.332605362E0
1.371586375E1,7.357929707E0,6.317051649E-1,-6.342176437E0
1.373467349E1,7.348358154E0,6.436693072E-1,-6.337390900E0
1.375348323E1,7.344769001E0,6.340979934E-1,-6.348158360E0
1.377229297E1,7.334001541E0,6.149554253E-1,-6.344569206E0
1.379110271E1,7.335197926E0,6.412764788E-1,-6.354140759E0
1.380991245E1,7.339983463E0,6.257231236E-1,-6.358926296E0
1.382872219E1,7.359126091E0,6.293123364E-1,-6.375676155E0
1.384753193E1,7.332805157E0,6.305087805E-1,-6.356533527E0
1.386634167E1,7.350750923E0,6.376872063E-1,-6.337390900E0
1.388515141E1,7.342376232E0,6.436693072E-1,-6.345765591E0
1.390396115E1,7.337590694E0,6.424728632E-1,-6.326622963E0
1.392277094E1,7.347161770E0,6.460621357E-1,-6.336194515E0
1.394158062E1,7.366304398E0,6.281159520E-1,-6.354140759E0
1.396039036E1,7.347161770E0,6.257231236E-1,-6.362515450E0
1.397920010E1,7.342376232E0,6.209374666E-1,-6.350551128E0
1.399800984E1,7.351947784E0,6.149554253E-1,-6.355337143E0
1.401681964E1,7.342376232E0,6.245267391E-1,-6.342176437E0
1.403562938E1,7.312466145E0,6.412764788E-1,-6.330212116E0
1.405443912E1,7.335197926E0,6.460621357E-1,-6.330212116E0
1.407324885E1,7.351947784E0,6.257231236E-1,-6.361319065E0
1.409205859E1,7.373483181E0,6.005984545E-1,-6.379265308E0
1.411086833E1,7.353144169E0,6.029912829E-1,-6.352943897E0
1.412967807E1,7.367500782E0,6.508477330E-1,-6.355337143E0
1.414848781E1,7.353144169E0,6.460621357E-1,-6.348158360E0
1.416729755E1,7.334001541E0,6.376872063E-1,-6.361319065E0
1.418610729E1,7.336394310E0,6.412764788E-1,-6.317051888E0
1.420491703E1,7.328019142E0,6.448656917E-1,-6.325426579E0
1.422372677E1,7.335197926E0,6.161518097E-1,-6.364908218E0
1.424253651E1,7.359126091E0,6.233302951E-1,-6.343372822E0
1.426134625E1,7.349554539E0,6.221339107E-1,-6.321837425E0
1.428015599E1,7.343572617E0,6.125625968E-1,-6.343372822E0
1.429896573E1,7.343572617E0,6.329016089E-1,-6.348158360E0
1.431777547E1,7.342376232E0,6.269195080E-1,-6.362515450E0
1.433658521E1,7.341179848E0,6.173482537E-1,-6.349354744E0
1.435539495E1,7.359126091E0,6.257231236E-1,-6.342176437E0
1.437420469E1,7.347161770E0,6.221339107E-1,-6.351747513E0
1.439301443E1,7.338787079E0,6.221339107E-1,-6.340980053E0
1.441182417E1,7.361518860E0,6.388836503E-1,-6.348158360E0
1.443063391E1,7.357929707E0,6.376872063E-1,-6.345765591E0
1.444944365E1,7.351947784E0,6.352944374E-1,-6.339783669E0
1.446825339E1,7.347161770E0,6.424728632E-1,-6.326622963E0
1.448706312E1,7.341179848E0,6.329016089E-1,-6.330212116E0
1.450587286E1,7.360322475E0,6.185446382E-1,-6.344569206E0
1.452468260E1,7.365108013E0,6.281159520E-1,-6.363711834E0
1.454349234E1,7.351947784E0,6.293123364E-1,-6.358926296E0
1.456230208E1,7.349554539E0,6.376872063E-1,-6.363711834E0
1.458111182E1,7.339983463E0,6.376872063E-1,-6.346961975E0
1.459992156E1,7.342376232E0,6.340979934E-1,-6.351747513E0
1.461873135E1,7.356733322E0,6.293123364E-1,-6.338587284E0
1.463754104E1,7.336394310E0,6.197410822E-1,-6.324230194E0
1.465635083E1,7.357929707E0,6.352944374E-1,-6.340980053E0
1.467516057E1,7.353144169E0,6.269195080E-1,-6.348158360E0
1.469397031E1,7.354340553E0,6.388836503E-1,-6.346961975E0
1.471278005E1,7.348358154E0,6.364908218E-1,-6.339783669E0
1.473158979E1,7.345965385E0,6.340979934E-1,-6.355337143E0
1.475039953E1,7.351947784E0,6.329016089E-1,-6.337390900E0
1.476920927E1,7.329215527E0,6.269195080E-1,-6.360122681E0
1.478801901E1,7.339983463E0,6.293123364E-1,-6.346961975E0
1.480682875E1,7.334001541E0,6.532405615E-1,-6.314659119E0
1.482563849E1,7.347161770E0,6.376872063E-1,-6.334998131E0
1.484444823E1,7.359126091E0,6.209374666E-1,-6.354140759E0
1.486325797E1,7.361518860E0,6.113662124E-1,-6.373282909E0
1.488206771E1,7.343572617E0,6.197410822E-1,-6.338587284E0
1.490087745E1,7.359126091E0,6.281159520E-1,-6.352943897E0
1.491968719E1,7.353144169E0,6.364908218E-1,-6.380461693E0
1.493849693E1,7.343572617E0,6.197410822E-1,-6.351747513E0
1.495730667E1,7.343572617E0,6.496513486E-1,-6.326622963E0
1.497611641E1,7.336394310E0,6.376872063E-1,-6.334998131E0
1.499492615E1,7.345965385E0,6.412764788E-1,-6.360122681E0
1.501373589E1,7.344769001E0,6.269195080E-1,-6.331408501E0
1.503254563E1,7.344769001E0,6.137589812E-1,-6.324230194E0
1.505135537E1,7.344769001E0,6.101697683E-1,-6.325426579E0
1.507016510E1,7.341179848E0,6.149554253E-1,-6.346961975E0
1.508897484E1,7.336394310E0,6.281159520E-1,-6.348158360E0
1.510778458E1,7.347161770E0,6.496513486E-1,-6.361319065E0
1.512659432E1,7.341179848E0,6.173482537E-1,-6.354140759E0
1.514540406E1,7.341179848E0,6.364908218E-1,-6.344569206E0
1.516421380E1,7.335197926E0,6.245267391E-1,-6.344569206E0
1.518302354E1,7.356733322E0,6.364908218E-1,-6.349354744E0
1.520183328E1,7.354340553E0,6.340979934E-1,-6.360122681E0
1.522064302E1,7.351947784E0,6.424728632E-1,-6.346961975E0
1.523945276E1,7.365108013E0,6.472585201E-1,-6.334998131E0
1.525826250E1,7.345965385E0,6.329016089E-1,-6.340980053E0
1.527707224E1,7.350750923E0,6.197410822E-1,-6.339783669E0
1.529588198E1,7.335197926E0,6.269195080E-1,-6.357729912E0
1.531469172E1,7.332805157E0,6.364908218E-1,-6.355337143E0
1.533350146E1,7.339983463E0,6.293123364E-1,-6.342176437E0
1.535231120E1,7.345965385E0,6.245267391E-1,-6.345765591E0
1.537112094E1,7.342376232E0,6.257231236E-1,-6.342176437E0
1.538993068E1,7.342376232E0,6.352944374E-1,-6.332605362E0
1.540874042E1,7.348358154E0,6.257231236E-1,-6.346961975E0
1.542755016E1,7.350750923E0,6.340979934E-1,-6.343372822E0
1.544635990E1,7.351947784E0,6.412764788E-1,-6.346961975E0
1.546516964E1,7.339983463E0,6.436693072E-1,-6.358926296E0
1.548397943E1,7.347161770E0,6.245267391E-1,-6.339783669E0
1.550278912E1,7.354340553E0,6.388836503E-1,-6.349354744E0
1.552159885E1,7.344769001E0,6.281159520E-1,-6.354140759E0
1.554040859E1,7.349554539E0,6.233302951E-1,-6.346961975E0
1.555921833E1,7.345965385E0,6.424728632E-1,-6.349354744E0
1.557802807E1,7.355536938E0,6.221339107E-1,-6.337390900E0
1.559683787E1,7.347161770E0,6.161518097E-1,-6.349354744E0
1.561564755E1,7.338787079E0,6.245267391E-1,-6.344569206E0
1.563445729E1,7.335197926E0,6.436693072E-1,-6.330212116E0
1.565326708E1,7.349554539E0,6.448656917E-1,-6.349354744E0
1.567207677E1,7.360322475E0,6.173482537E-1,-6.367300987E0
1.569088656E1,7.343572617E0,6.161518097E-1,-6.349354744E0
1.570969630E1,7.328019142E0,6.221339107E-1,-6.358926296E0
1.572850599E1,7.355536938E0,6.317051649E-1,-6.363711834E0
1.574731578E1,7.359126091E0,6.424728632E-1,-6.374479294E0
1.576612552E1,7.338787079E0,6.376872063E-1,-6.342176437E0
1.578493526E1,7.338787079E0,6.436693072E-1,-6.330212116E0
1.580374500E1,7.332805157E0,6.400800347E-1,-6.337390900E0
1.582255474E1,7.339983463E0,6.424728632E-1,-6.348158360E0
1.584136448E1,7.337590694E0,6.376872063E-1,-6.339783669E0
1.586017417E1,7.334001541E0,6.233302951E-1,-6.332605362E0
1.587898391E1,7.331608772E0,6.137589812E-1,-6.334998131E0
1.589779370E1,7.338787079E0,6.233302951E-1,-6.354140759E0
1.591660344E1,7.349554539E0,6.340979934E-1,-6.352943897E0
1.593541318E1,7.348358154E0,6.293123364E-1,-6.356533527E0
1.595422292E1,7.359126091E0,6.364908218E-1,-6.358926296E0
1.597303260E1,7.343572617E0,6.161518097E-1,-6.361319065E0
1.599184240E1,7.335197926E0,6.221339107E-1,-6.340980053E0
1.601065214E1,7.332805157E0,6.508477330E-1,-6.337390900E0
1.602946182E1,7.353144169E0,6.424728632E-1,-6.355337143E0
1.604827162E1,7.357929707E0,6.412764788E-1,-6.354140759E0
1.606708135E1,7.344769001E0,6.209374666E-1,-6.327819347E0
1.608589104E1,7.341179848E0,6.281159520E-1,-6.329015732E0
1.610470083E1,7.351947784E0,6.352944374E-1,-6.356533527E0
1.612351052E1,7.332805157E0,6.197410822E-1,-6.356533527E0
1.614232026E1,7.341179848E0,6.197410822E-1,-6.348158360E0
1.616113000E1,7.345965385E0,6.149554253E-1,-6.376872540E0
1.617993974E1,7.332805157E0,6.101697683E-1,-6.364908218E0
1.619874948E1,7.341179848E0,6.233302951E-1,-6.349354744E0
1.621755922E1,7.335197926E0,6.293123364E-1,-6.342176437E0
1.623636896E1,7.344769001E0,6.257231236E-1,-6.338587284E0
1.625517870E1,7.351947784E0,6.329016089E-1,-6.354140759E0
1.627398844E1,7.359126091E0,6.329016089E-1,-6.345765591E0
1.629279818E1,7.351947784E0,6.293123364E-1,-6.348158360E0
1.631160792E1,7.348358154E0,6.293123364E-1,-6.364908218E0
1.633041766E1,7.337590694E0,6.305087805E-1,-6.355337143E0
1.634922740E1,7.339983463E0,6.352944374E-1,-6.351747513E0
1.636803714E1,7.332805157E0,6.281159520E-1,-6.358926296E0
1.638684688E1,7.336394310E0,6.257231236E-1,-6.350551128E0
1.640565662E1,7.344769001E0,6.221339107E-1,-6.346961975E0
1.642446635E1,7.347161770E0,6.257231236E-1,-6.345765591E0
1.644327609E1,7.348358154E0,5.970092416E-1,-6.345765591E0
1.646208583E1,7.337590694E0,6.197410822E-1,-6.349354744E0
1.648089557E1,7.343572617E0,6.293123364E-1,-6.350551128E0
1.649970531E1,7.339983463E0,6.113662124E-1,-6.361319065E0
1.651851505E1,7.349554539E0,6.137589812E-1,-6.363711834E0
1.653732479E1,7.342376232E0,6.149554253E-1,-6.357729912E0
1.655613453E1,7.345965385E0,6.161518097E-1,-6.357729912E0
1.657494427E1,7.343572617E0,6.185446382E-1,-6.350551128E0
1.659375401E1,7.324429989E0,6.448656917E-1,-6.315855503E0
1.661256375E1,7.298109055E0,6.436693072E-1,-6.326622963E0
1.663137349E1,7.349554539E0,6.101697683E-1,-6.361319065E0
1.665018323E1,7.354340553E0,5.910272002E-1,-6.386443615E0
1.666899297E1,7.354340553E0,5.982056856E-1,-6.349354744E0
1.668780271E1,7.356733322E0,6.329016089E-1,-6.356533527E0
1.670661245E1,7.380661488E0,6.388836503E-1,-6.362515450E0
1.672542219E1,7.336394310E0,6.352944374E-1,-6.360122681E0
1.674423193E1,7.313662529E0,6.508477330E-1,-6.315855503E0
1.676304162E1,7.332805157E0,6.281159520E-1,-6.331408501E0
1.678185141E1,7.336394310E0,6.101697683E-1,-6.349354744E0
1.680066109E1,7.355536938E0,6.161518097E-1,-6.350551128E0
1.681947083E1,7.336394310E0,6.137589812E-1,-6.321837425E0
1.683828057E1,7.355536938E0,6.101697683E-1,-6.331408501E0
1.685709031E1,7.351947784E0,6.125625968E-1,-6.360122681E0
1.687590005E1,7.356733322E0,6.209374666E-1,-6.364908218E0
1.689470979E1,7.341179848E0,6.281159520E-1,-6.362515450E0
1.691351953E1,7.354340553E0,6.400800347E-1,-6.356533527E0
1.693232927E1,7.357929707E0,6.149554253E-1,-6.357729912E0
1.695113901E1,7.339983463E0,6.173482537E-1,-6.330212116E0
1.696994875E1,7.334001541E0,6.185446382E-1,-6.331408501E0
1.698875849E1,7.353144169E0,6.149554253E-1,-6.346961975E0
1.700756823E1,7.348358154E0,6.185446382E-1,-6.332605362E0
1.702637797E1,7.355536938E0,6.233302951E-1,-6.330212116E0
1.704518771E1,7.342376232E0,6.185446382E-1,-6.343372822E0
1.706399745E1,7.339983463E0,6.257231236E-1,-6.337390900E0
1.708280719E1,7.355536938E0,6.221339107E-1,-6.362515450E0
1.710161693E1,7.353144169E0,6.293123364E-1,-6.352943897E0
1.712042662E1,7.349554539E0,6.221339107E-1,-6.361319065E0
1.713923635E1,7.342376232E0,6.340979934E-1,-6.348158360E0
1.715804609E1,7.348358154E0,6.233302951E-1,-6.342176437E0
1.717685583E1,7.339983463E0,6.209374666E-1,-6.332605362E0
1.719566557E1,7.348358154E0,6.065805554E-1,-6.338587284E0
1.721447531E1,7.344769001E0,6.173482537E-1,-6.339783669E0
1.723328505E1,7.342376232E0,6.185446382E-1,-6.354140759E0
1.725209479E1,7.339983463E0,6.137589812E-1,-6.334998131E0
1.727090453E1,7.353144169E0,6.269195080E-1,-6.351747513E0
1.728971427E1,7.350750923E0,6.293123364E-1,-6.348158360E0
1.730852401E1,7.356733322E0,6.221339107E-1,-6.356533527E0
1.732733375E1,7.342376232E0,6.245267391E-1,-6.351747513E0
1.734614349E1,7.345965385E0,6.113662124E-1,-6.348158360E0
1.736495323E1,7.344769001E0,6.364908218E-1,-6.343372822E0
1.738376292E1,7.348358154E0,6.305087805E-1,-6.355337143E0
1.740257266E1,7.341179848E0,6.257231236E-1,-6.344569206E0
1.742138240E1,7.348358154E0,6.281159520E-1,-6.340980053E0
1.744019214E1,7.356733322E0,6.161518097E-1,-6.357729912E0
1.745900188E1,7.357929707E0,6.173482537E-1,-6.364908218E0
1.747781162E1,7.345965385E0,6.340979934E-1,-6.344569206E0
1.749662135E1,7.334001541E0,6.173482537E-1,-6.363711834E0
1.751543109E1,7.334001541E0,6.376872063E-1,-6.342176437E0
1.753424083E1,7.319644451E0,6.484549642E-1,-6.331408501E0
1.755305057E1,7.343572617E0,6.329016089E-1,-6.344569206E0
1.757186031E1,7.354340553E0,6.173482537E-1,-6.362515450E0
1.759067000E1,7.353144169E0,5.970092416E-1,-6.362515450E0
1.760947974E1,7.345965385E0,6.125625968E-1,-6.342176437E0
1.762828948E1,7.368697166E0,6.137589812E-1,-6.369693756E0
1.764709922E1,7.342376232E0,6.257231236E-1,-6.369693756E0
1.766590896E1,7.338787079E0,6.352944374E-1,-6.339783669E0
1.768471870E1,7.337590694E0,6.484549642E-1,-6.326622963E0
1.770352844E1,7.330412388E0,6.221339107E-1,-6.344569206E0
1.772233818E1,7.351947784E0,6.424728632E-1,-6.350551128E0
1.774114792E1,7.345965385E0,6.197410822E-1,-6.326622963E0
1.775995760E1,7.334001541E0,6.209374666E-1,-6.334998131E0
1.777876734E1,7.337590694E0,6.257231236E-1,-6.336194515E0
1.779757708E1,7.338787079E0,6.221339107E-1,-6.352943897E0
1.781638682E1,7.334001541E0,6.041877270E-1,-6.354140759E0
1.783519656E1,7.341179848E0,6.340979934E-1,-6.345765591E0
1.785400630E1,7.326822758E0,6.293123364E-1,-6.352943897E0
1.787281604E1,7.355536938E0,6.149554253E-1,-6.357729912E0
1.789162578E1,7.335197926E0,6.281159520E-1,-6.345765591E0
1.791043552E1,7.334001541E0,6.269195080E-1,-6.325426579E0
1.792924526E1,7.349554539E0,6.305087805E-1,-6.356533527E0
1.794805495E1,7.341179848E0,6.101697683E-1,-6.351747513E0
1.796686469E1,7.349554539E0,6.436693072E-1,-6.329015732E0
1.798567443E1,7.343572617E0,6.340979934E-1,-6.349354744E0
1.800448417E1,7.342376232E0,6.245267391E-1,-6.342176437E0
1.802329391E1,7.337590694E0,6.352944374E-1,-6.366104603E0
1.804210365E1,7.329215527E0,6.077769399E-1,-6.345765591E0
1.806091339E1,7.335197926E0,6.257231236E-1,-6.352943897E0
1.807972312E1,7.325626373E0,6.161518097E-1,-6.354140759E0
1.809853281E1,7.337590694E0,6.221339107E-1,-6.354140759E0
1.811734255E1,7.332805157E0,6.101697683E-1,-6.332605362E0
1.813615229E1,7.351947784E0,6.269195080E-1,-6.334998131E0
1.815496203E1,7.349554539E0,6.185446382E-1,-6.337390900E0
1.817377177E1,7.354340553E0,6.257231236E-1,-6.354140759E0
1.819258151E1,7.339983463E0,6.221339107E-1,-6.352943897E0
1.821139125E1,7.348358154E0,6.185446382E-1,-6.361319065E0
1.823020099E1,7.349554539E0,6.065805554E-1,-6.361319065E0
1.824901068E1,7.349554539E0,6.281159520E-1,-6.360122681E0
1.826782042E1,7.337590694E0,6.257231236E-1,-6.358926296E0
1.828663016E1,7.330412388E0,6.257231236E-1,-6.349354744E0
1.830543990E1,7.338787079E0,6.340979934E-1,-6.355337143E0
1.832424964E1,7.342376232E0,6.173482537E-1,-6.352943897E0
1.834305938E1,7.345965385E0,6.221339107E-1,-6.339783669E0
1.836186912E1,7.350750923E0,6.089733839E-1,-6.346961975E0
1.838067885E1,7.337590694E0,6.185446382E-1,-6.343372822E0
1.839948854E1,7.326822758E0,6.317051649E-1,-6.346961975E0
1.841829828E1,7.350750923E0,6.340979934E-1,-6.356533527E0
1.843710802E1,7.347161770E0,6.364908218E-1,-6.340980053E0
1.845591776E1,7.351947784E0,6.221339107E-1,-6.350551128E0
1.847472750E1,7.354340553E0,6.233302951E-1,-6.362515450E0
1.849353724E1,7.334001541E0,6.089733839E-1,-6.345765591E0
1.851234698E1,7.350750923E0,6.149554253E-1,-6.350551128E0
1.853115667E1,7.338787079E0,6.293123364E-1,-6.344569206E0
1.854996641E1,7.322037220E0,6.472585201E-1,-6.339783669E0
1.856877615E1,7.331608772E0,6.293123364E-1,-6.362515450E0
1.858758589E1,7.363911629E0,5.994020700E-1,-6.369693756E0
1.860639562E1,7.345965385E0,5.910272002E-1,-6.356533527E0
1.862520537E1,7.348358154E0,5.922235847E-1,-6.357729912E0
1.864401505E1,7.353144169E0,6.412764788E-1,-6.372086525E0
1.866282479E1,7.337590694E0,6.293123364E-1,-6.379265308E0
1.868163453E1,7.330412388E0,6.460621357E-1,-6.345765591E0
1.870044427E1,7.318448067E0,6.592226624E-1,-6.307480335E0
1.871925401E1,7.328019142E0,6.305087805E-1,-6.333801746E0
1.873806375E1,7.334001541E0,6.149554253E-1,-6.346961975E0
1.875687344E1,7.338787079E0,6.185446382E-1,-6.330212116E0
1.877568318E1,7.345965385E0,6.041877270E-1,-6.336194515E0
1.879449292E1,7.357929707E0,6.125625968E-1,-6.342176437E0
1.881330266E1,7.348358154E0,6.089733839E-1,-6.361319065E0
1.883211240E1,7.344769001E0,6.173482537E-1,-6.357729912E0
1.885092214E1,7.332805157E0,6.293123364E-1,-6.357729912E0
1.886973188E1,7.338787079E0,6.209374666E-1,-6.360122681E0
1.888854156E1,7.348358154E0,6.029912829E-1,-6.356533527E0
1.890735130E1,7.334001541E0,6.161518097E-1,-6.340980053E0
1.892616104E1,7.326822758E0,6.209374666E-1,-6.336194515E0
1.894497078E1,7.362715244E0,6.065805554E-1,-6.368497372E0
1.896378052E1,7.372286797E0,6.125625968E-1,-6.348158360E0
1.898259021E1,7.338787079E0,6.424728632E-1,-6.329015732E0
1.900139995E1,7.347161770E0,6.352944374E-1,-6.340980053E0
1.902020969E1,7.338787079E0,6.161518097E-1,-6.362515450E0
1.903901943E1,7.335197926E0,6.185446382E-1,-6.370890141E0
1.905782917E1,7.332805157E0,6.209374666E-1,-6.358926296E0
1.907663891E1,7.335197926E0,6.089733839E-1,-6.361319065E0
1.909544859E1,7.342376232E0,6.185446382E-1,-6.367300987E0
1.911425833E1,7.329215527E0,6.161518097E-1,-6.356533527E0
1.913306807E1,7.334001541E0,6.065805554E-1,-6.343372822E0
1.915187781E1,7.343572617E0,6.233302951E-1,-6.343372822E0
1.917068755E1,7.345965385E0,6.329016089E-1,-6.354140759E0
1.918949724E1,7.355536938E0,6.017948985E-1,-6.369693756E0
1.920830698E1,7.350750923E0,6.197410822E-1,-6.333801746E0
1.922711672E1,7.349554539E0,6.197410822E-1,-6.323033810E0
1.924592646E1,7.347161770E0,6.149554253E-1,-6.354140759E0
1.926473620E1,7.341179848E0,5.922235847E-1,-6.346961975E0
1.928354594E1,7.343572617E0,6.257231236E-1,-6.339783669E0
1.930235562E1,7.344769001E0,6.113662124E-1,-6.367300987E0
1.932116537E1,7.336394310E0,6.197410822E-1,-6.352943897E0
1.933997510E1,7.325626373E0,6.113662124E-1,-6.351747513E0
1.935878484E1,7.343572617E0,6.209374666E-1,-6.345765591E0
1.937759453E1,7.338787079E0,6.257231236E-1,-6.348158360E0
1.939640427E1,7.351947784E0,6.197410822E-1,-6.352943897E0
1.941521401E1,7.336394310E0,6.233302951E-1,-6.357729912E0
1.943402375E1,7.344769001E0,6.101697683E-1,-6.366104603E0
1.945283349E1,7.337590694E0,6.161518097E-1,-6.349354744E0
1.947164318E1,7.339983463E0,6.209374666E-1,-6.367300987E0
1.949045292E1,7.324429989E0,6.424728632E-1,-6.337390900E0
1.950926266E1,7.328019142E0,6.340979934E-1,-6.336194515E0
1.952807240E1,7.363911629E0,6.269195080E-1,-6.364908218E0
1.954688214E1,7.368697166E0,5.982056856E-1,-6.382854462E0
1.956569182E1,7.357929707E0,5.910272002E-1,-6.356533527E0
1.958450156E1,7.357929707E0,6.233302951E-1,-6.337390900E0
1.960331130E1,7.349554539E0,6.400800347E-1,-6.361319065E0
1.962212104E1,7.347161770E0,6.317051649E-1,-6.367300987E0
1.964093073E1,7.324429989E0,6.460621357E-1,-6.323033810E0
1.965974047E1,7.342376232E0,6.412764788E-1,-6.333801746E0
1.967855021E1,7.343572617E0,6.113662124E-1,-6.346961975E0
1.969735995E1,7.343572617E0,6.173482537E-1,-6.357729912E0
1.971616969E1,7.339983463E0,6.005984545E-1,-6.324230194E0
1.973497938E1,7.344769001E0,6.221339107E-1,-6.325426579E0
1.975378912E1,7.348358154E0,6.149554253E-1,-6.356533527E0
1.977259885E1,7.355536938E0,6.161518097E-1,-6.361319065E0
1.979140859E1,7.353144169E0,6.197410822E-1,-6.351747513E0
1.981021833E1,7.357929707E0,6.293123364E-1,-6.350551128E0
1.982902802E1,7.362715244E0,6.149554253E-1,-6.363711834E0
1.984783776E1,7.339983463E0,6.101697683E-1,-6.338587284E0
1.986664750E1,7.334001541E0,6.053841114E-1,-6.336194515E0
1.988545724E1,7.339983463E0,6.137589812E-1,-6.351747513E0
1.990426693E1,7.353144169E0,6.185446382E-1,-6.357729912E0
1.992307667E1,7.338787079E0,6.137589812E-1,-6.337390900E0
1.994188641E1,7.334001541E0,6.197410822E-1,-6.329015732E0
1.996069615E1,7.350750923E0,6.113662124E-1,-6.343372822E0
1.997950583E1,7.341179848E0,6.113662124E-1,-6.367300987E0
1.999831557E1,7.343572617E0,6.161518097E-1,-6.358926296E0
2.001712531E1,7.355536938E0,6.209374666E-1,-6.357729912E0
2.003593505E1,7.332805157E0,6.257231236E-1,-6.363711834E0
2.005474474E1,7.332805157E0,6.293123364E-1,-6.345765591E0
2.007355448E1,7.342376232E0,6.185446382E-1,-6.342176437E0
2.009236422E1,7.343572617E0,6.317051649E-1,-6.336194515E0
2.011117396E1,7.344769001E0,6.137589812E-1,-6.332605362E0
2.012998365E1,7.350750923E0,6.125625968E-1,-6.345765591E0
2.014879339E1,7.344769001E0,6.161518097E-1,-6.344569206E0
2.016760313E1,7.355536938E0,6.197410822E-1,-6.346961975E0
2.018641286E1,7.344769001E0,6.101697683E-1,-6.345765591E0
2.020522255E1,7.357929707E0,6.125625968E-1,-6.357729912E0
2.022403229E1,7.336394310E0,6.376872063E-1,-6.356533527E0
2.024284203E1,7.342376232E0,6.269195080E-1,-6.352943897E0
2.026165172E1,7.334001541E0,6.221339107E-1,-6.329015732E0
2.028046146E1,7.342376232E0,6.137589812E-1,-6.348158360E0
2.029927120E1,7.355536938E0,6.137589812E-1,-6.348158360E0
2.031808094E1,7.351947784E0,6.233302951E-1,-6.352943897E0
2.033689063E1,7.345965385E0,6.149554253E-1,-6.351747513E0
2.035570036E1,7.343572617E0,6.197410822E-1,-6.346961975E0
2.037451010E1,7.328019142E0,5.994020700E-1,-6.361319065E0
2.039331984E1,7.339983463E0,5.982056856E-1,-6.345765591E0
2.041212953E1,7.314858913E0,6.388836503E-1,-6.337390900E0
2.043093927E1,7.337590694E0,6.173482537E-1,-6.363711834E0
2.044974901E1,7.363911629E0,6.101697683E-1,-6.376872540E0
2.046855875E1,7.335197926E0,6.029912829E-1,-6.363711834E0
2.048736844E1,7.338787079E0,6.065805554E-1,-6.348158360E0
2.050617818E1,7.375875950E0,6.317051649E-1,-6.367300987E0
2.052498792E1,7.341179848E0,6.197410822E-1,-6.374479294E0
2.054379760E1,7.332805157E0,6.269195080E-1,-6.340980053E0
2.056260734E1,7.330412388E0,6.424728632E-1,-6.334998131E0
2.058141708E1,7.336394310E0,6.269195080E-1,-6.342176437E0
2.060022682E1,7.353144169E0,6.185446382E-1,-6.354140759E0
2.061903651E1,7.331608772E0,6.041877270E-1,-6.343372822E0
2.063784625E1,7.342376232E0,5.994020700E-1,-6.339783669E0
2.065665599E1,7.339983463E0,6.089733839E-1,-6.348158360E0
2.067546568E1,7.337590694E0,6.077769399E-1,-6.361319065E0
2.069427542E1,7.341179848E0,6.137589812E-1,-6.356533527E0
2.071308516E1,7.343572617E0,6.329016089E-1,-6.351747513E0
2.073189490E1,7.342376232E0,6.436693072E-1,-6.343372822E0
2.075070458E1,7.356733322E0,6.221339107E-1,-6.349354744E0
2.076951432E1,7.330412388E0,6.017948985E-1,-6.349354744E0
2.078832406E1,7.344769001E0,6.053841114E-1,-6.355337143E0
2.080713375E1,7.372286797E0,6.053841114E-1,-6.366104603E0
2.082594349E1,7.347161770E0,6.161518097E-1,-6.337390900E0
2.084475323E1,7.338787079E0,6.245267391E-1,-6.313462734E0
2.086356297E1,7.342376232E0,6.245267391E-1,-6.326622963E0
2.088237266E1,7.338787079E0,6.233302951E-1,-6.351747513E0
2.090118240E1,7.350750923E0,6.245267391E-1,-6.372086525E0
2.091999214E1,7.348358154E0,6.005984545E-1,-6.360122681E0
2.093880182E1,7.338787079E0,6.173482537E-1,-6.354140759E0
2.095761156E1,7.337590694E0,6.197410822E-1,-6.354140759E0
2.097642130E1,7.314858913E0,6.233302951E-1,-6.355337143E0
2.099523099E1,7.314858913E0,6.101697683E-1,-6.355337143E0
2.101404073E1,7.328019142E0,6.173482537E-1,-6.352943897E0
2.103285047E1,7.344769001E0,6.209374666E-1,-6.364908218E0
2.105166016E1,7.344769001E0,6.185446382E-1,-6.349354744E0
2.107046990E1,7.347161770E0,6.101697683E-1,-6.345765591E0
2.108927964E1,7.357929707E0,6.161518097E-1,-6.368497372E0
2.110808932E1,7.365108013E0,6.089733839E-1,-6.357729912E0
2.112689906E1,7.359126091E0,6.221339107E-1,-6.344569206E0
2.114570880E1,7.372286797E0,6.173482537E-1,-6.319444656E0
2.116451849E1,7.381857872E0,6.233302951E-1,-6.330212116E0
2.118332823E1,7.323233604E0,6.197410822E-1,-6.350551128E0
2.120213797E1,7.267002583E0,6.137589812E-1,-6.373282909E0
2.122094766E1,7.258627415E0,6.173482537E-1,-6.373282909E0
2.123975740E1,7.256234646E0,6.281159520E-1,-6.381658077E0
2.125856714E1,7.284948349E0,6.185446382E-1,-6.380461693E0
2.127737688E1,7.322037220E0,6.017948985E-1,-6.369693756E0
2.129618656E1,7.336394310E0,6.053841114E-1,-6.354140759E0
2.131499630E1,7.399804115E0,6.137589812E-1,-6.338587284E0
2.133380599E1,7.381857872E0,6.400800347E-1,-6.307480335E0
2.135261573E1,7.368697166E0,6.317051649E-1,-6.343372822E0
2.137142547E1,7.367500782E0,6.329016089E-1,-6.361319065E0
2.139023516E1,7.350750923E0,6.029912829E-1,-6.424728870E0
2.140904490E1,7.337590694E0,6.005984545E-1,-6.416353703E0
2.142785464E1,7.328019142E0,5.970092416E-1,-6.403193474E0
2.144666432E1,7.298109055E0,6.101697683E-1,-6.392425537E0
2.146547406E1,7.292127132E0,6.101697683E-1,-6.349354744E0
2.148428380E1,7.316055298E0,6.269195080E-1,-6.318248272E0
2.150309354E1,7.330412388E0,6.281159520E-1,-6.329015732E0
2.152190323E1,7.322037220E0,6.257231236E-1,-6.368497372E0
2.154071297E1,7.347161770E0,6.101697683E-1,-6.373282909E0
2.155952266E1,7.330412388E0,6.089733839E-1,-6.375676155E0
2.157833240E1,7.336394310E0,6.185446382E-1,-6.381658077E0
2.159714214E1,7.343572617E0,6.209374666E-1,-6.400800705E0
2.161595182E1,7.335197926E0,6.149554253E-1,-6.385247231E0
2.163476156E1,7.342376232E0,6.053841114E-1,-6.339783669E0
2.165357130E1,7.324429989E0,6.269195080E-1,-6.326622963E0
2.167238099E1,7.323233604E0,6.221339107E-1,-6.326622963E0
2.169119073E1,7.301698208E0,6.305087805E-1,-6.345765591E0
2.171000042E1,7.304090977E0,6.209374666E-1,-6.336194515E0
2.172881016E1,7.313662529E0,6.005984545E-1,-6.372086525E0
2.174761990E1,7.337590694E0,5.946164131E-1,-6.385247231E0
2.176642958E1,7.342376232E0,5.994020700E-1,-6.390032768E0
2.178523932E1,7.355536938E0,6.113662124E-1,-6.391229153E0
2.180404906E1,7.373483181E0,6.293123364E-1,-6.400800705E0
2.182285875E1,7.353144169E0,6.340979934E-1,-6.384050846E0
2.184166849E1,7.336394310E0,6.329016089E-1,-6.354140759E0
2.186047823E1,7.320840836E0,6.137589812E-1,-6.332605362E0
2.187928792E1,7.301698208E0,6.161518097E-1,-6.329015732E0
2.189809766E1,7.310073376E0,6.053841114E-1,-6.338587284E0
2.191690740E1,7.326822758E0,6.041877270E-1,-6.337390900E0
2.193571708E1,7.341179848E0,6.209374666E-1,-6.345765591E0
2.195452682E1,7.331608772E0,6.173482537E-1,-6.348158360E0
2.197333651E1,7.325626373E0,6.017948985E-1,-6.350551128E0
2.199214625E1,7.324429989E0,5.982056856E-1,-6.366104603E0
2.201095599E1,7.341179848E0,6.137589812E-1,-6.387639999E0
2.202976568E1,7.350750923E0,6.245267391E-1,-6.393621922E0
2.204857542E1,7.347161770E0,6.149554253E-1,-6.392425537E0
2.206738516E1,7.354340553E0,6.065805554E-1,-6.362515450E0
2.208619484E1,7.338787079E0,6.233302951E-1,-6.361319065E0
2.210500458E1,7.360322475E0,6.209374666E-1,-6.376872540E0
2.212381427E1,7.337590694E0,5.910272002E-1,-6.381658077E0
2.214262401E1,7.313662529E0,6.305087805E-1,-6.337390900E0
2.216143375E1,7.316055298E0,6.281159520E-1,-6.351747513E0
2.218024344E1,7.330412388E0,6.281159520E-1,-6.375676155E0
2.219905318E1,7.314858913E0,5.958128572E-1,-6.368497372E0
2.221786286E1,7.308876991E0,5.970092416E-1,-6.342176437E0
2.223667260E1,7.365108013E0,6.209374666E-1,-6.380461693E0
2.225548234E1,7.353144169E0,6.221339107E-1,-6.406782627E0
2.227429203E1,7.354340553E0,6.329016089E-1,-6.367300987E0
2.229310177E1,7.331608772E0,6.376872063E-1,-6.337390900E0
2.231191151E1,7.317251682E0,6.233302951E-1,-6.352943897E0
2.233072120E1,7.319644451E0,6.065805554E-1,-6.357729912E0
2.234953094E1,7.334001541E0,6.101697683E-1,-6.352943897E0
2.236834063E1,7.332805157E0,5.994020700E-1,-6.334998131E0
2.238715036E1,7.338787079E0,5.970092416E-1,-6.336194515E0
2.240596010E1,7.335197926E0,6.005984545E-1,-6.348158360E0
2.242476979E1,7.348358154E0,6.101697683E-1,-6.352943897E0
2.244357953E1,7.334001541E0,6.281159520E-1,-6.348158360E0
2.246238922E1,7.334001541E0,6.281159520E-1,-6.387639999E0
2.248119896E1,7.335197926E0,6.101697683E-1,-6.394818306E0
2.250000870E1,7.325626373E0,6.101697683E-1,-6.388836384E0
2.251881839E1,7.337590694E0,6.161518097E-1,-6.368497372E0
2.253762812E1,7.329215527E0,6.005984545E-1,-6.367300987E0
2.255643781E1,7.348358154E0,6.209374666E-1,-6.355337143E0
2.257524755E1,7.334001541E0,6.089733839E-1,-6.337390900E0
2.259405724E1,7.330412388E0,6.233302951E-1,-6.337390900E0
2.261286698E1,7.323233604E0,6.089733839E-1,-6.350551128E0
2.263167672E1,7.323233604E0,6.113662124E-1,-6.372086525E0
2.265048641E1,7.320840836E0,6.017948985E-1,-6.372086525E0
2.266929615E1,7.334001541E0,6.233302951E-1,-6.382854462E0
2.268810589E1,7.329215527E0,6.101697683E-1,-6.391229153E0
2.270691557E1,7.324429989E0,6.269195080E-1,-6.367300987E0
2.272572531E1,7.345965385E0,6.137589812E-1,-6.348158360E0
2.274453500E1,7.328019142E0,6.161518097E-1,-6.337390900E0
2.276334474E1,7.337590694E0,6.065805554E-1,-6.342176437E0
2.278215443E1,7.348358154E0,6.209374666E-1,-6.351747513E0
2.280096417E1,7.339983463E0,6.161518097E-1,-6.364908218E0
2.281977391E1,7.323233604E0,6.197410822E-1,-6.382854462E0
2.283858359E1,7.320840836E0,6.173482537E-1,-6.373282909E0
2.285739333E1,7.312466145E0,6.053841114E-1,-6.355337143E0
2.287620302E1,7.322037220E0,6.101697683E-1,-6.373282909E0
2.289501276E1,7.317251682E0,6.077769399E-1,-6.352943897E0
2.291382245E1,7.325626373E0,6.460621357E-1,-6.339783669E0
2.293263219E1,7.363911629E0,6.293123364E-1,-6.372086525E0
2.295144193E1,7.379465103E0,6.017948985E-1,-6.368497372E0
2.297025162E1,7.357929707E0,5.718846321E-1,-6.361319065E0
2.298906135E1,7.332805157E0,5.934200287E-1,-6.367300987E0
2.300787104E1,7.338787079E0,6.209374666E-1,-6.382854462E0
2.302668078E1,7.325626373E0,6.376872063E-1,-6.399604321E0
2.304549047E1,7.311269760E0,6.628118753E-1,-6.363711834E0
2.306430021E1,7.272984505E0,6.317051649E-1,-6.315855503E0
2.308310995E1,7.310073376E0,6.137589812E-1,-6.355337143E0
2.310191964E1,7.344769001E0,5.946164131E-1,-6.393621922E0
2.312072938E1,7.356733322E0,5.742774606E-1,-6.393621922E0
2.313953906E1,7.350750923E0,6.281159520E-1,-6.349354744E0
2.315834880E1,7.319644451E0,6.233302951E-1,-6.306283951E0
2.317715849E1,7.300501823E0,6.496513486E-1,-6.277570248E0
2.319596823E1,7.293323517E0,6.628118753E-1,-6.248856544E0
2.321477792E1,7.344769001E0,6.293123364E-1,-6.333801746E0
2.323358766E1,7.409375191E0,5.766702294E-1,-6.429514408E0
2.325239740E1,7.406982422E0,5.288137794E-1,-6.416353703E0
2.327120708E1,7.405786037E0,5.587241054E-1,-6.396014690E0
2.329001682E1,7.362715244E0,5.886343718E-1,-6.382854462E0
2.330882651E1,7.335197926E0,6.101697683E-1,-6.382854462E0
2.332763625E1,7.289734364E0,6.364908218E-1,-6.344569206E0
2.334644594E1,7.299305439E0,6.197410822E-1,-6.326622963E0
2.336525568E1,7.255038261E0,6.017948985E-1,-6.297909260E0
2.338406536E1,7.296912670E0,7.334001660E-1,-6.399604321E0
2.340287510E1,7.405786037E0,6.161518097E-1,-6.441478729E0
2.342168484E1,7.277770042E0,6.161518097E-1,-6.325426579E0
2.344049453E1,7.311269760E0,6.364908218E-1,-6.385247231E0
2.345930427E1,7.323233604E0,5.814558864E-1,-6.404389858E0
2.347811396E1,7.322037220E0,5.958128572E-1,-6.366104603E0
2.349692370E1,7.341179848E0,6.209374666E-1,-6.358926296E0
2.351573339E1,7.343572617E0,6.173482537E-1,-6.355337143E0
2.353454313E1,7.379465103E0,6.149554253E-1,-6.364908218E0
2.355335281E1,7.362715244E0,6.305087805E-1,-6.356533527E0
2.357216255E1,7.353144169E0,6.173482537E-1,-6.350551128E0
2.359097229E1,7.332805157E0,6.209374666E-1,-6.339783669E0
2.360978198E1,7.314858913E0,6.089733839E-1,-6.364908218E0
2.362859172E1,7.304090977E0,6.257231236E-1,-6.384050846E0
2.364740141E1,7.277770042E0,6.197410822E-1,-6.361319065E0
2.366621115E1,7.294519901E0,6.329016089E-1,-6.360122681E0
2.368502083E1,7.313662529E0,6.029912829E-1,-6.373282909E0
2.370383057E1,7.347161770E0,5.766702294E-1,-6.369693756E0
2.372264026E1,7.369893551E0,5.730810165E-1,-6.388836384E0
2.374145000E1,7.361518860E0,6.089733839E-1,-6.379265308E0
2.376025969E1,7.347161770E0,6.376872063E-1,-6.387639999E0
2.377906943E1,7.326822758E0,6.233302951E-1,-6.356533527E0
2.379787912E1,7.316055298E0,6.484549642E-1,-6.323033810E0
2.381668885E1,7.300501823E0,6.340979934E-1,-6.326622963E0
2.383549854E1,7.308876991E0,6.053841114E-1,-6.361319065E0
2.385430828E1,7.341179848E0,5.958128572E-1,-6.352943897E0
2.387311802E1,7.338787079E0,5.814558864E-1,-6.345765591E0
2.389192771E1,7.354340553E0,5.862415433E-1,-6.358926296E0
2.391073745E1,7.366304398E0,5.898307562E-1,-6.373282909E0
2.392954714E1,7.384250641E0,5.910272002E-1,-6.368497372E0
2.394835688E1,7.355536938E0,6.293123364E-1,-6.375676155E0
2.396716656E1,7.334001541E0,6.293123364E-1,-6.367300987E0
2.398597630E1,7.329215527E0,6.185446382E-1,-6.355337143E0
2.400478599E1,7.295716286E0,6.101697683E-1,-6.361319065E0
2.402359573E1,7.305287361E0,6.269195080E-1,-6.348158360E0
2.404240542E1,7.305287361E0,6.233302951E-1,-6.352943897E0
2.406121516E1,7.331608772E0,6.101697683E-1,-6.338587284E0
2.408002484E1,7.336394310E0,6.185446382E-1,-6.346961975E0
2.409883458E1,7.351947784E0,6.017948985E-1,-6.333801746E0
2.411764432E1,7.357929707E0,5.886343718E-1,-6.344569206E0
2.413645401E1,7.371089935E0,5.802595019E-1,-6.356533527E0
2.415526370E1,7.362715244E0,5.850451589E-1,-6.369693756E0
2.417407344E1,7.335197926E0,5.838487148E-1,-6.403193474E0
2.419288318E1,7.349554539E0,6.041877270E-1,-6.419943333E0
2.421169286E1,7.344769001E0,6.257231236E-1,-6.392425537E0
2.423050260E1,7.330412388E0,6.340979934E-1,-6.358926296E0
2.424931229E1,7.317251682E0,6.281159520E-1,-6.325426579E0
2.426812203E1,7.317251682E0,6.329016089E-1,-6.329015732E0
2.428693172E1,7.331608772E0,6.233302951E-1,-6.360122681E0
2.430574146E1,7.325626373E0,5.958128572E-1,-6.360122681E0
2.432455115E1,7.324429989E0,5.886343718E-1,-6.364908218E0
2.434336089E1,7.310073376E0,5.970092416E-1,-6.356533527E0
2.436217057E1,7.310073376E0,6.041877270E-1,-6.366104603E0
2.438098031E1,7.307680130E0,6.197410822E-1,-6.352943897E0
2.439979000E1,7.317251682E0,6.329016089E-1,-6.361319065E0
2.441859974E1,7.365108013E0,6.149554253E-1,-6.362515450E0
2.443740943E1,7.391428947E0,6.005984545E-1,-6.351747513E0
2.445621917E1,7.383054256E0,5.886343718E-1,-6.337390900E0
2.447502885E1,7.374679565E0,5.910272002E-1,-6.350551128E0
2.449383859E1,7.366304398E0,6.041877270E-1,-6.384050846E0
2.451264833E1,7.338787079E0,6.149554253E-1,-6.379265308E0
2.453145802E1,7.316055298E0,6.161518097E-1,-6.339783669E0
2.455026776E1,7.300501823E0,6.436693072E-1,-6.345765591E0
2.456907745E1,7.302894592E0,6.257231236E-1,-6.361319065E0
2.458788714E1,7.323233604E0,6.137589812E-1,-6.354140759E0
2.460669688E1,7.323233604E0,6.173482537E-1,-6.339783669E0
2.462550662E1,7.332805157E0,5.994020700E-1,-6.350551128E0
2.464431630E1,7.351947784E0,5.958128572E-1,-6.358926296E0
2.466312604E1,7.356733322E0,6.065805554E-1,-6.361319065E0
2.468193573E1,7.342376232E0,5.994020700E-1,-6.357729912E0
2.470074547E1,7.322037220E0,6.293123364E-1,-6.346961975E0
2.471955516E1,7.338787079E0,6.197410822E-1,-6.355337143E0
2.473836484E1,7.337590694E0,6.269195080E-1,-6.346961975E0
2.475717458E1,7.328019142E0,6.173482537E-1,-6.343372822E0
2.477598432E1,7.350750923E0,5.874379873E-1,-6.366104603E0
2.479479401E1,7.357929707E0,5.898307562E-1,-6.366104603E0
2.481360370E1,7.348358154E0,6.113662124E-1,-6.354140759E0
2.483241344E1,7.339983463E0,6.065805554E-1,-6.366104603E0
2.485122318E1,7.343572617E0,6.281159520E-1,-6.370890141E0
2.487003287E1,7.330412388E0,6.257231236E-1,-6.372086525E0
2.488884260E1,7.311269760E0,6.065805554E-1,-6.369693756E0
2.490765229E1,7.328019142E0,5.994020700E-1,-6.367300987E0
2.492646203E1,7.337590694E0,6.125625968E-1,-6.368497372E0
2.494527172E1,7.334001541E0,6.221339107E-1,-6.352943897E0
2.496408146E1,7.348358154E0,6.137589812E-1,-6.346961975E0
2.498289115E1,7.341179848E0,6.113662124E-1,-6.337390900E0
2.500170089E1,7.349554539E0,5.946164131E-1,-6.349354744E0
2.502051057E1,7.339983463E0,5.994020700E-1,-6.364908218E0
2.503932031E1,7.325626373E0,6.185446382E-1,-6.376872540E0
2.505813000E1,7.339983463E0,6.077769399E-1,-6.375676155E0
2.507693974E1,7.324429989E0,6.125625968E-1,-6.382854462E0
2.509574943E1,7.302894592E0,6.113662124E-1,-6.375676155E0
2.511455917E1,7.319644451E0,6.197410822E-1,-6.380461693E0
2.513336885E1,7.330412388E0,6.089733839E-1,-6.367300987E0
2.515217859E1,7.339983463E0,6.125625968E-1,-6.348158360E0
2.517098828E1,7.320840836E0,6.161518097E-1,-6.320641041E0
2.518979797E1,7.345965385E0,6.305087805E-1,-6.337390900E0
2.520860771E1,7.345965385E0,6.077769399E-1,-6.362515450E0
2.522741740E1,7.354340553E0,5.886343718E-1,-6.362515450E0
2.524622714E1,7.339983463E0,5.922235847E-1,-6.355337143E0
2.526503682E1,7.336394310E0,6.077769399E-1,-6.386443615E0
2.528384656E1,7.342376232E0,6.113662124E-1,-6.399604321E0
2.530265625E1,7.334001541E0,6.221339107E-1,-6.373282909E0
2.532146599E1,7.339983463E0,6.257231236E-1,-6.357729912E0
2.534027568E1,7.337590694E0,6.101697683E-1,-6.362515450E0
2.535908542E1,7.322037220E0,6.137589812E-1,-6.360122681E0
2.537789510E1,7.334001541E0,6.173482537E-1,-6.334998131E0
2.539670484E1,7.336394310E0,5.898307562E-1,-6.340980053E0
2.541551453E1,7.361518860E0,5.946164131E-1,-6.360122681E0
2.543432427E1,7.366304398E0,5.934200287E-1,-6.374479294E0
2.545313396E1,7.354340553E0,6.149554253E-1,-6.364908218E0
2.547194370E1,7.304090977E0,6.305087805E-1,-6.364908218E0
2.549075339E1,7.311269760E0,6.233302951E-1,-6.374479294E0
2.550956313E1,7.324429989E0,6.257231236E-1,-6.374479294E0
2.552837281E1,7.304090977E0,6.041877270E-1,-6.378068924E0
2.554718250E1,7.322037220E0,6.089733839E-1,-6.380461693E0
2.556599224E1,7.349554539E0,6.029912829E-1,-6.374479294E0
2.558480193E1,7.341179848E0,6.077769399E-1,-6.340980053E0
2.560361167E1,7.342376232E0,6.185446382E-1,-6.318248272E0
2.562242135E1,7.344769001E0,6.137589812E-1,-6.336194515E0
2.564123109E1,7.353144169E0,6.185446382E-1,-6.369693756E0
2.566004078E1,7.317251682E0,6.101697683E-1,-6.361319065E0
2.567885052E1,7.313662529E0,6.125625968E-1,-6.369693756E0
2.569766021E1,7.323233604E0,6.077769399E-1,-6.369693756E0
2.571646995E1,7.320840836E0,6.089733839E-1,-6.379265308E0
2.573527964E1,7.329215527E0,6.017948985E-1,-6.376872540E0
2.575408938E1,7.328019142E0,6.065805554E-1,-6.370890141E0
2.577289906E1,7.342376232E0,6.029912829E-1,-6.352943897E0
2.579170880E1,7.342376232E0,6.113662124E-1,-6.358926296E0
2.581051849E1,7.362715244E0,6.197410822E-1,-6.338587284E0
2.582932818E1,7.348358154E0,5.898307562E-1,-6.362515450E0
2.584813792E1,7.324429989E0,6.149554253E-1,-6.363711834E0
2.586694760E1,7.331608772E0,6.077769399E-1,-6.378068924E0
2.588575734E1,7.326822758E0,5.982056856E-1,-6.375676155E0
2.590456703E1,7.337590694E0,6.041877270E-1,-6.360122681E0
2.592337677E1,7.326822758E0,6.065805554E-1,-6.349354744E0
2.594218646E1,7.320840836E0,6.185446382E-1,-6.362515450E0
2.596099620E1,7.337590694E0,5.994020700E-1,-6.374479294E0
2.597980589E1,7.325626373E0,5.970092416E-1,-6.364908218E0
2.599861563E1,7.332805157E0,5.934200287E-1,-6.370890141E0
2.601742531E1,7.332805157E0,6.113662124E-1,-6.364908218E0
2.603623500E1,7.329215527E0,6.053841114E-1,-6.369693756E0
2.605504474E1,7.330412388E0,6.137589812E-1,-6.343372822E0
2.607385443E1,7.308876991E0,6.412764788E-1,-6.339783669E0
2.609266417E1,7.332805157E0,6.041877270E-1,-6.364908218E0
2.611147385E1,7.361518860E0,5.850451589E-1,-6.388836384E0
2.613028359E1,7.342376232E0,5.838487148E-1,-6.384050846E0
2.614909328E1,7.343572617E0,6.077769399E-1,-6.356533527E0
2.616790297E1,7.351947784E0,6.293123364E-1,-6.376872540E0
2.618671271E1,7.332805157E0,6.233302951E-1,-6.367300987E0
2.620552240E1,7.306483746E0,6.173482537E-1,-6.325426579E0
2.622433214E1,7.299305439E0,6.137589812E-1,-6.332605362E0
2.624314182E1,7.331608772E0,6.041877270E-1,-6.375676155E0
2.626195156E1,7.335197926E0,5.958128572E-1,-6.375676155E0
2.628076125E1,7.357929707E0,5.862415433E-1,-6.345765591E0
2.629957094E1,7.338787079E0,5.862415433E-1,-6.356533527E0
2.631838068E1,7.366304398E0,5.982056856E-1,-6.361319065E0
2.633719036E1,7.354340553E0,6.137589812E-1,-6.374479294E0
2.635600010E1,7.348358154E0,6.400800347E-1,-6.366104603E0
2.637480979E1,7.337590694E0,6.173482537E-1,-6.357729912E0
2.639361953E1,7.319644451E0,6.089733839E-1,-6.362515450E0
2.641242922E1,7.310073376E0,5.934200287E-1,-6.355337143E0
2.643123896E1,7.329215527E0,6.017948985E-1,-6.336194515E0
2.645004865E1,7.338787079E0,5.946164131E-1,-6.364908218E0
2.646885833E1,7.339983463E0,5.970092416E-1,-6.334998131E0
2.648766807E1,7.339983463E0,6.029912829E-1,-6.336194515E0
2.650647776E1,7.334001541E0,6.113662124E-1,-6.342176437E0
2.652528750E1,7.330412388E0,6.005984545E-1,-6.366104603E0
2.654409719E1,7.334001541E0,6.185446382E-1,-6.369693756E0
2.656290693E1,7.332805157E0,6.029912829E-1,-6.369693756E0
2.658171662E1,7.324429989E0,5.970092416E-1,-6.363711834E0
2.660052630E1,7.334001541E0,6.161518097E-1,-6.362515450E0
2.661933604E1,7.329215527E0,6.221339107E-1,-6.356533527E0
2.663814573E1,7.326822758E0,6.149554253E-1,-6.333801746E0
2.665695547E1,7.332805157E0,6.161518097E-1,-6.349354744E0
2.667576516E1,7.330412388E0,6.125625968E-1,-6.355337143E0
2.669457484E1,7.348358154E0,6.065805554E-1,-6.351747513E0
2.671338458E1,7.331608772E0,6.065805554E-1,-6.356533527E0
2.673219427E1,7.335197926E0,6.053841114E-1,-6.363711834E0
2.675100401E1,7.341179848E0,5.970092416E-1,-6.358926296E0
2.676981370E1,7.334001541E0,6.053841114E-1,-6.358926296E0
2.678862339E1,7.329215527E0,6.149554253E-1,-6.355337143E0
2.680743313E1,7.334001541E0,6.137589812E-1,-6.360122681E0
2.682624281E1,7.344769001E0,6.017948985E-1,-6.356533527E0
2.684505255E1,7.339983463E0,6.125625968E-1,-6.362515450E0
2.686386224E1,7.335197926E0,6.089733839E-1,-6.356533527E0
2.688267198E1,7.331608772E0,6.041877270E-1,-6.366104603E0
2.690148167E1,7.324429989E0,6.053841114E-1,-6.366104603E0
2.692029135E1,7.326822758E0,6.125625968E-1,-6.338587284E0
2.693910109E1,7.318448067E0,6.185446382E-1,-6.340980053E0
2.695791078E1,7.335197926E0,6.125625968E-1,-6.352943897E0
2.697672052E1,7.361518860E0,6.029912829E-1,-6.379265308E0
2.699553021E1,7.347161770E0,5.766702294E-1,-6.360122681E0
2.701433990E1,7.332805157E0,5.922235847E-1,-6.346961975E0
2.703314964E1,7.344769001E0,6.077769399E-1,-6.373282909E0
2.705195932E1,7.344769001E0,6.209374666E-1,-6.379265308E0
2.707076901E1,7.337590694E0,6.317051649E-1,-6.344569206E0
2.708957875E1,7.326822758E0,6.317051649E-1,-6.339783669E0
2.710838844E1,7.330412388E0,6.041877270E-1,-6.358926296E0
2.712719818E1,7.332805157E0,6.137589812E-1,-6.362515450E0
2.714600786E1,7.341179848E0,6.005984545E-1,-6.329015732E0
2.716481760E1,7.335197926E0,6.053841114E-1,-6.346961975E0
2.718362729E1,7.335197926E0,6.005984545E-1,-6.351747513E0
2.720243698E1,7.337590694E0,5.898307562E-1,-6.361319065E0
2.722124672E1,7.345965385E0,6.017948985E-1,-6.361319065E0
2.724005641E1,7.320840836E0,6.137589812E-1,-6.356533527E0
2.725886609E1,7.325626373E0,5.934200287E-1,-6.367300987E0
2.727767583E1,7.334001541E0,5.946164131E-1,-6.364908218E0
2.729648552E1,7.332805157E0,6.089733839E-1,-6.346961975E0
2.731529526E1,7.338787079E0,6.125625968E-1,-6.363711834E0
2.733410495E1,7.344769001E0,6.017948985E-1,-6.362515450E0
2.735291464E1,7.342376232E0,5.982056856E-1,-6.340980053E0
2.737172438E1,7.339983463E0,6.221339107E-1,-6.342176437E0
2.739053406E1,7.341179848E0,6.245267391E-1,-6.344569206E0
2.740934375E1,7.353144169E0,6.113662124E-1,-6.364908218E0
2.742815349E1,7.328019142E0,6.113662124E-1,-6.366104603E0
2.744696318E1,7.332805157E0,6.173482537E-1,-6.352943897E0
2.746577292E1,7.335197926E0,6.113662124E-1,-6.366104603E0
2.748458260E1,7.331608772E0,6.017948985E-1,-6.369693756E0
2.750339234E1,7.339983463E0,6.173482537E-1,-6.363711834E0
2.752220203E1,7.326822758E0,6.209374666E-1,-6.360122681E0
2.754101172E1,7.337590694E0,6.161518097E-1,-6.349354744E0
2.755982146E1,7.328019142E0,6.113662124E-1,-6.355337143E0
2.757863115E1,7.329215527E0,6.089733839E-1,-6.366104603E0
2.759744089E1,7.347161770E0,6.149554253E-1,-6.364908218E0
2.761625057E1,7.345965385E0,6.125625968E-1,-6.366104603E0
2.763506026E1,7.339983463E0,6.005984545E-1,-6.364908218E0
2.765387000E1,7.322037220E0,6.113662124E-1,-6.367300987E0
2.767267969E1,7.324429989E0,6.221339107E-1,-6.361319065E0
2.769148938E1,7.325626373E0,6.125625968E-1,-6.355337143E0
2.771029912E1,7.342376232E0,5.994020700E-1,-6.352943897E0
2.772910880E1,7.332805157E0,6.041877270E-1,-6.352943897E0
2.774791854E1,7.343572617E0,6.029912829E-1,-6.378068924E0
2.776672823E1,7.343572617E0,6.041877270E-1,-6.367300987E0
2.778553792E1,7.330412388E0,6.089733839E-1,-6.358926296E0
2.780434766E1,7.330412388E0,6.065805554E-1,-6.368497372E0
2.782315734E1,7.331608772E0,6.017948985E-1,-6.358926296E0
2.784196708E1,7.318448067E0,6.089733839E-1,-6.351747513E0
2.786077677E1,7.337590694E0,6.257231236E-1,-6.376872540E0
2.787958646E1,7.335197926E0,6.005984545E-1,-6.366104603E0
2.789839620E1,7.329215527E0,6.029912829E-1,-6.366104603E0
2.791720589E1,7.330412388E0,6.137589812E-1,-6.360122681E0
2.793601563E1,7.341179848E0,6.149554253E-1,-6.369693756E0
2.795482531E1,7.331608772E0,6.209374666E-1,-6.367300987E0
2.797363500E1,7.344769001E0,6.161518097E-1,-6.375676155E0
2.799244474E1,7.342376232E0,6.125625968E-1,-6.355337143E0
2.801125443E1,7.322037220E0,6.017948985E-1,-6.356533527E0
2.803006412E1,7.326822758E0,6.221339107E-1,-6.346961975E0
2.804887385E1,7.338787079E0,6.293123364E-1,-6.349354744E0
2.806768354E1,7.347161770E0,6.089733839E-1,-6.372086525E0
2.808649328E1,7.360322475E0,5.826523304E-1,-6.375676155E0
2.810530297E1,7.331608772E0,5.814558864E-1,-6.366104603E0
2.812411271E1,7.348358154E0,5.922235847E-1,-6.364908218E0
2.814292240E1,7.363911629E0,6.125625968E-1,-6.386443615E0
2.816173208E1,7.324429989E0,6.125625968E-1,-6.392425537E0
2.818054182E1,7.317251682E0,6.293123364E-1,-6.331408501E0
2.819935151E1,7.298109055E0,6.364908218E-1,-6.340980053E0
2.821816120E1,7.325626373E0,6.089733839E-1,-6.351747513E0
2.823697094E1,7.339983463E0,6.125625968E-1,-6.361319065E0
2.825578063E1,7.348358154E0,6.041877270E-1,-6.340980053E0
2.827459036E1,7.342376232E0,5.910272002E-1,-6.357729912E0
2.829340005E1,7.361518860E0,5.958128572E-1,-6.366104603E0
2.831220979E1,7.336394310E0,6.017948985E-1,-6.369693756E0
2.833101948E1,7.343572617E0,5.994020700E-1,-6.364908218E0
2.834982922E1,7.341179848E0,6.209374666E-1,-6.361319065E0
2.836863891E1,7.326822758E0,6.101697683E-1,-6.373282909E0
2.838744859E1,7.328019142E0,6.137589812E-1,-6.366104603E0
2.840625833E1,7.304090977E0,6.137589812E-1,-6.349354744E0
2.842506802E1,7.335197926E0,6.101697683E-1,-6.369693756E0
2.844387776E1,7.363911629E0,5.910272002E-1,-6.368497372E0
2.846268745E1,7.343572617E0,5.982056856E-1,-6.351747513E0
2.848149714E1,7.325626373E0,6.161518097E-1,-6.344569206E0
2.850030688E1,7.325626373E0,6.137589812E-1,-6.351747513E0
2.851911656E1,7.332805157E0,6.113662124E-1,-6.373282909E0
2.853792630E1,7.337590694E0,6.077769399E-1,-6.370890141E0
2.855673599E1,7.324429989E0,6.161518097E-1,-6.374479294E0
2.857554568E1,7.341179848E0,5.982056856E-1,-6.374479294E0
2.859435542E1,7.338787079E0,6.065805554E-1,-6.366104603E0
2.861316510E1,7.339983463E0,5.946164131E-1,-6.362515450E0
2.863197484E1,7.349554539E0,6.269195080E-1,-6.350551128E0
2.865078453E1,7.338787079E0,5.958128572E-1,-6.351747513E0
2.866959427E1,7.331608772E0,6.089733839E-1,-6.355337143E0
2.868840396E1,7.337590694E0,6.197410822E-1,-6.367300987E0
2.870721365E1,7.344769001E0,6.113662124E-1,-6.375676155E0
2.872602339E1,7.331608772E0,6.113662124E-1,-6.354140759E0
2.874483307E1,7.331608772E0,5.994020700E-1,-6.370890141E0
2.876364281E1,7.328019142E0,6.077769399E-1,-6.366104603E0
2.878245250E1,7.336394310E0,6.101697683E-1,-6.369693756E0
2.880126224E1,7.328019142E0,5.898307562E-1,-6.356533527E0
2.882007193E1,7.337590694E0,6.005984545E-1,-6.357729912E0
2.883888167E1,7.332805157E0,5.910272002E-1,-6.361319065E0
2.885769135E1,7.331608772E0,5.958128572E-1,-6.354140759E0
2.887650104E1,7.337590694E0,5.970092416E-1,-6.349354744E0
2.889531078E1,7.331608772E0,6.029912829E-1,-6.354140759E0
2.891412047E1,7.330412388E0,6.149554253E-1,-6.364908218E0
2.893293021E1,7.337590694E0,6.376872063E-1,-6.358926296E0
2.895173990E1,7.325626373E0,6.053841114E-1,-6.355337143E0
2.897054964E1,7.330412388E0,6.257231236E-1,-6.374479294E0
2.898935932E1,7.335197926E0,5.958128572E-1,-6.374479294E0
2.900816901E1,7.343572617E0,5.970092416E-1,-6.363711834E0
2.902697875E1,7.343572617E0,5.970092416E-1,-6.372086525E0
2.904578844E1,7.348358154E0,6.065805554E-1,-6.375676155E0
2.906459818E1,7.326822758E0,6.149554253E-1,-6.351747513E0
2.908340786E1,7.318448067E0,6.293123364E-1,-6.342176437E0
2.910221760E1,7.344769001E0,6.293123364E-1,-6.351747513E0
2.912102729E1,7.356733322E0,5.766702294E-1,-6.384050846E0
2.913983703E1,7.343572617E0,5.826523304E-1,-6.384050846E0
2.915864672E1,7.334001541E0,5.970092416E-1,-6.352943897E0
2.917745646E1,7.360322475E0,6.233302951E-1,-6.367300987E0
2.919626615E1,7.329215527E0,6.305087805E-1,-6.370890141E0
2.921507589E1,7.319644451E0,6.077769399E-1,-6.350551128E0
2.923388557E1,7.314858913E0,6.364908218E-1,-6.330212116E0
2.925269526E1,7.330412388E0,5.838487148E-1,-6.362515450E0
2.927150500E1,7.339983463E0,5.946164131E-1,-6.366104603E0
2.929031469E1,7.347161770E0,5.934200287E-1,-6.351747513E0
2.930912443E1,7.330412388E0,6.053841114E-1,-6.345765591E0
2.932793412E1,7.343572617E0,5.946164131E-1,-6.354140759E0
2.934674385E1,7.350750923E0,6.017948985E-1,-6.375676155E0
2.936555354E1,7.344769001E0,5.946164131E-1,-6.372086525E0
2.938436328E1,7.334001541E0,6.233302951E-1,-6.364908218E0
2.940317297E1,7.337590694E0,6.065805554E-1,-6.370890141E0
2.942198271E1,7.334001541E0,5.982056856E-1,-6.360122681E0
2.944079240E1,7.319644451E0,6.065805554E-1,-6.350551128E0
2.945960214E1,7.342376232E0,5.994020700E-1,-6.363711834E0
2.947841182E1,7.348358154E0,6.041877270E-1,-6.357729912E0
2.949722151E1,7.334001541E0,5.910272002E-1,-6.344569206E0
2.951603125E1,7.343572617E0,6.137589812E-1,-6.338587284E0
2.953484094E1,7.344769001E0,6.065805554E-1,-6.366104603E0
2.955365068E1,7.335197926E0,6.065805554E-1,-6.373282909E0
2.957246036E1,7.341179848E0,6.113662124E-1,-6.368497372E0
2.959127010E1,7.339983463E0,5.970092416E-1,-6.369693756E0
2.961007979E1,7.344769001E0,6.077769399E-1,-6.364908218E0
2.962888953E1,7.324429989E0,6.137589812E-1,-6.354140759E0
2.964769922E1,7.338787079E0,6.041877270E-1,-6.351747513E0
2.966650896E1,7.314858913E0,6.125625968E-1,-6.345765591E0
2.968531865E1,7.343572617E0,6.113662124E-1,-6.342176437E0
2.970412839E1,7.347161770E0,6.041877270E-1,-6.354140759E0
2.972293807E1,7.339983463E0,6.089733839E-1,-6.355337143E0
2.974174776E1,7.342376232E0,5.934200287E-1,-6.352943897E0
2.976055750E1,7.341179848E0,6.029912829E-1,-6.364908218E0
2.977936719E1,7.332805157E0,5.970092416E-1,-6.360122681E0
2.979817693E1,7.323233604E0,6.149554253E-1,-6.360122681E0
2.981698662E1,7.326822758E0,6.053841114E-1,-6.355337143E0
2.983579635E1,7.335197926E0,6.053841114E-1,-6.354140759E0
2.985460604E1,7.337590694E0,6.077769399E-1,-6.364908218E0
2.987341578E1,7.343572617E0,6.053841114E-1,-6.366104603E0
2.989222547E1,7.357929707E0,6.149554253E-1,-6.351747513E0
2.991103521E1,7.345965385E0,6.017948985E-1,-6.350551128E0
2.992984490E1,7.339983463E0,6.053841114E-1,-6.354140759E0
2.994865464E1,7.347161770E0,6.113662124E-1,-6.360122681E0
2.996746432E1,7.334001541E0,6.185446382E-1,-6.354140759E0
2.998627406E1,7.329215527E0,6.137589812E-1,-6.361319065E0
3.000508375E1,7.330412388E0,6.041877270E-1,-6.364908218E0
3.002389349E1,7.342376232E0,6.149554253E-1,-6.370890141E0
3.004270318E1,7.345965385E0,6.029912829E-1,-6.375676155E0
3.006151292E1,7.338787079E0,6.041877270E-1,-6.367300987E0
3.008032260E1,7.326822758E0,6.065805554E-1,-6.358926296E0
3.009913234E1,7.320840836E0,6.293123364E-1,-6.340980053E0
3.011794203E1,7.332805157E0,6.065805554E-1,-6.357729912E0
3.013675177E1,7.350750923E0,6.149554253E-1,-6.364908218E0
3.015556146E1,7.347161770E0,5.706881881E-1,-6.374479294E0
3.017437120E1,7.334001541E0,6.041877270E-1,-6.355337143E0
3.019318089E1,7.351947784E0,6.077769399E-1,-6.370890141E0
3.021199057E1,7.354340553E0,6.089733839E-1,-6.396014690E0
3.023080031E1,7.332805157E0,6.101697683E-1,-6.379265308E0
3.024961000E1,7.329215527E0,6.257231236E-1,-6.339783669E0
3.026841974E1,7.319644451E0,6.305087805E-1,-6.336194515E0
3.028722943E1,7.335197926E0,6.149554253E-1,-6.374479294E0
3.030603917E1,7.334001541E0,6.185446382E-1,-6.358926296E0
3.032484885E1,7.328019142E0,5.898307562E-1,-6.349354744E0
3.034365859E1,7.328019142E0,5.814558864E-1,-6.346961975E0
3.036246828E1,7.353144169E0,5.994020700E-1,-6.351747513E0
3.038127802E1,7.348358154E0,5.850451589E-1,-6.367300987E0
3.040008771E1,7.335197926E0,6.029912829E-1,-6.358926296E0
3.041889745E1,7.320840836E0,6.209374666E-1,-6.374479294E0
3.043770714E1,7.345965385E0,6.113662124E-1,-6.357729912E0
3.045651688E1,7.339983463E0,6.209374666E-1,-6.348158360E0
3.047532656E1,7.337590694E0,6.029912829E-1,-6.343372822E0
3.049413630E1,7.336394310E0,5.970092416E-1,-6.349354744E0
3.051294599E1,7.348358154E0,5.994020700E-1,-6.363711834E0
3.053175573E1,7.351947784E0,6.149554253E-1,-6.357729912E0
3.055056542E1,7.337590694E0,6.197410822E-1,-6.346961975E0
3.056937516E1,7.345965385E0,6.113662124E-1,-6.345765591E0
3.058818484E1,7.344769001E0,6.113662124E-1,-6.367300987E0
3.060699458E1,7.341179848E0,6.101697683E-1,-6.360122681E0
3.062580427E1,7.329215527E0,6.017948985E-1,-6.374479294E0
3.064461401E1,7.320840836E0,6.245267391E-1,-6.362515450E0
3.066342370E1,7.326822758E0,6.041877270E-1,-6.358926296E0
3.068223344E1,7.330412388E0,5.922235847E-1,-6.354140759E0
3.070104312E1,7.326822758E0,6.065805554E-1,-6.345765591E0
3.071985287E1,7.335197926E0,6.113662124E-1,-6.351747513E0
3.073866255E1,7.338787079E0,6.101697683E-1,-6.354140759E0
3.075747224E1,7.361518860E0,5.922235847E-1,-6.360122681E0
3.077628198E1,7.345965385E0,6.041877270E-1,-6.368497372E0
3.079509167E1,7.341179848E0,6.053841114E-1,-6.364908218E0
3.081390141E1,7.319644451E0,6.101697683E-1,-6.368497372E0
3.083271109E1,7.332805157E0,5.922235847E-1,-6.366104603E0
3.085152083E1,7.332805157E0,6.197410822E-1,-6.358926296E0
3.087033052E1,7.323233604E0,6.125625968E-1,-6.349354744E0
3.088914026E1,7.331608772E0,6.197410822E-1,-6.354140759E0
3.090794995E1,7.343572617E0,5.886343718E-1,-6.369693756E0
3.092675969E1,7.330412388E0,5.934200287E-1,-6.364908218E0
3.094556938E1,7.342376232E0,6.137589812E-1,-6.364908218E0
3.096437912E1,7.344769001E0,6.029912829E-1,-6.357729912E0
3.098318880E1,7.324429989E0,6.041877270E-1,-6.361319065E0
3.100199854E1,7.330412388E0,6.137589812E-1,-6.363711834E0
3.102080823E1,7.347161770E0,6.113662124E-1,-6.363711834E0
3.103961797E1,7.339983463E0,6.197410822E-1,-6.366104603E0
3.105842766E1,7.328019142E0,6.137589812E-1,-6.362515450E0
3.107723740E1,7.330412388E0,6.017948985E-1,-6.356533527E0
3.109604708E1,7.328019142E0,6.197410822E-1,-6.352943897E0
3.111485682E1,7.323233604E0,6.161518097E-1,-6.362515450E0
3.113366651E1,7.344769001E0,6.197410822E-1,-6.366104603E0
3.115247625E1,7.332805157E0,6.077769399E-1,-6.357729912E0
3.117128594E1,7.329215527E0,6.077769399E-1,-6.364908218E0
3.119009568E1,7.339983463E0,6.029912829E-1,-6.369693756E0
3.120890537E1,7.325626373E0,6.185446382E-1,-6.352943897E0
3.122771510E1,7.312466145E0,6.185446382E-1,-6.340980053E0
3.124652479E1,7.341179848E0,6.269195080E-1,-6.374479294E0
3.126533453E1,7.338787079E0,5.910272002E-1,-6.376872540E0
3.128414422E1,7.325626373E0,5.814558864E-1,-6.367300987E0
3.130295391E1,7.350750923E0,6.029912829E-1,-6.368497372E0
3.132176365E1,7.374679565E0,6.125625968E-1,-6.390032768E0
3.134057339E1,7.345965385E0,6.317051649E-1,-6.374479294E0
3.135938307E1,7.319644451E0,6.137589812E-1,-6.344569206E0
3.137819276E1,7.305287361E0,6.412764788E-1,-6.331408501E0
3.139700250E1,7.316055298E0,6.041877270E-1,-6.352943897E0
3.141581219E1,7.341179848E0,5.874379873E-1,-6.363711834E0
3.143462193E1,7.328019142E0,5.850451589E-1,-6.350551128E0
3.145343162E1,7.332805157E0,5.922235847E-1,-6.338587284E0
3.147224135E1,7.339983463E0,5.874379873E-1,-6.345765591E0
3.149105104E1,7.353144169E0,5.946164131E-1,-6.372086525E0
3.150986078E1,7.335197926E0,6.053841114E-1,-6.357729912E0
3.152867047E1,7.332805157E0,6.149554253E-1,-6.357729912E0
3.154748021E1,7.338787079E0,6.257231236E-1,-6.372086525E0
3.156628990E1,7.339983463E0,6.245267391E-1,-6.375676155E0
3.158509964E1,7.322037220E0,5.910272002E-1,-6.349354744E0
3.160390932E1,7.323233604E0,6.017948985E-1,-6.343372822E0
3.162271906E1,7.355536938E0,6.149554253E-1,-6.351747513E0
3.164152875E1,7.344769001E0,5.874379873E-1,-6.366104603E0
3.166033849E1,7.334001541E0,5.970092416E-1,-6.336194515E0
3.167914818E1,7.338787079E0,6.077769399E-1,-6.331408501E0
3.169795792E1,7.343572617E0,6.065805554E-1,-6.356533527E0
3.171676760E1,7.328019142E0,6.089733839E-1,-6.372086525E0
3.173557734E1,7.328019142E0,5.910272002E-1,-6.366104603E0
3.175438703E1,7.338787079E0,5.994020700E-1,-6.374479294E0
3.177319677E1,7.329215527E0,5.946164131E-1,-6.362515450E0
3.179200646E1,7.332805157E0,5.982056856E-1,-6.376872540E0
3.181081620E1,7.335197926E0,6.089733839E-1,-6.360122681E0
3.182962589E1,7.331608772E0,6.041877270E-1,-6.350551128E0
3.184843562E1,7.334001541E0,6.089733839E-1,-6.354140759E0
3.186724531E1,7.341179848E0,6.089733839E-1,-6.348158360E0
3.188605505E1,7.344769001E0,6.077769399E-1,-6.352943897E0
3.190486474E1,7.338787079E0,6.101697683E-1,-6.363711834E0
3.192367443E1,7.350750923E0,5.946164131E-1,-6.366104603E0
3.194248417E1,7.328019142E0,5.970092416E-1,-6.374479294E0
3.196129391E1,7.331608772E0,5.970092416E-1,-6.364908218E0
3.198010359E1,7.324429989E0,5.970092416E-1,-6.354140759E0
3.199891333E1,7.342376232E0,6.041877270E-1,-6.361319065E0
3.201772302E1,7.328019142E0,6.125625968E-1,-6.360122681E0
3.203653276E1,7.335197926E0,6.041877270E-1,-6.343372822E0
3.205534245E1,7.331608772E0,6.041877270E-1,-6.364908218E0
3.207415214E1,7.339983463E0,6.125625968E-1,-6.351747513E0
3.209296188E1,7.337590694E0,6.149554253E-1,-6.364908218E0
3.211177156E1,7.338787079E0,6.221339107E-1,-6.360122681E0
3.213058130E1,7.323233604E0,6.221339107E-1,-6.360122681E0
3.214939099E1,7.336394310E0,6.137589812E-1,-6.367300987E0
3.216820073E1,7.329215527E0,6.065805554E-1,-6.358926296E0
3.218701042E1,7.341179848E0,5.994020700E-1,-6.355337143E0
3.220582016E1,7.341179848E0,5.910272002E-1,-6.361319065E0
3.222462984E1,7.313662529E0,6.137589812E-1,-6.343372822E0
3.224343958E1,7.324429989E0,6.221339107E-1,-6.336194515E0
3.226224927E1,7.350750923E0,6.041877270E-1,-6.372086525E0
3.228105901E1,7.359126091E0,5.742774606E-1,-6.384050846E0
3.229986870E1,7.347161770E0,5.790630579E-1,-6.376872540E0
3.231867844E1,7.337590694E0,6.077769399E-1,-6.355337143E0
3.233748812E1,7.365108013E0,6.173482537E-1,-6.378068924E0
3.235629786E1,7.337590694E0,6.400800347E-1,-6.373282909E0
3.237510755E1,7.324429989E0,6.161518097E-1,-6.350551128E0
3.239391729E1,7.334001541E0,6.269195080E-1,-6.336194515E0
3.241272698E1,7.332805157E0,5.958128572E-1,-6.360122681E0
3.243153672E1,7.341179848E0,5.958128572E-1,-6.360122681E0
3.245034641E1,7.332805157E0,5.802595019E-1,-6.337390900E0
3.246915615E1,7.353144169E0,5.958128572E-1,-6.348158360E0
3.248796583E1,7.341179848E0,5.898307562E-1,-6.361319065E0
3.250677557E1,7.330412388E0,6.041877270E-1,-6.356533527E0
3.252558526E1,7.336394310E0,6.017948985E-1,-6.355337143E0
3.254439500E1,7.334001541E0,6.185446382E-1,-6.352943897E0
3.256320469E1,7.343572617E0,5.982056856E-1,-6.372086525E0
3.258201443E1,7.338787079E0,5.958128572E-1,-6.357729912E0
3.260082412E1,7.323233604E0,6.005984545E-1,-6.346961975E0
3.261963385E1,7.336394310E0,6.113662124E-1,-6.344569206E0
3.263844354E1,7.355536938E0,6.005984545E-1,-6.345765591E0
3.265725328E1,7.353144169E0,5.970092416E-1,-6.352943897E0
3.267606297E1,7.342376232E0,6.053841114E-1,-6.330212116E0
3.269487271E1,7.339983463E0,6.125625968E-1,-6.350551128E0
3.271368240E1,7.354340553E0,6.101697683E-1,-6.367300987E0
3.273249208E1,7.337590694E0,5.994020700E-1,-6.373282909E0
3.275130182E1,7.341179848E0,6.017948985E-1,-6.374479294E0
3.277011151E1,7.323233604E0,6.077769399E-1,-6.364908218E0
3.278892125E1,7.331608772E0,6.089733839E-1,-6.358926296E0
3.280773094E1,7.329215527E0,6.221339107E-1,-6.356533527E0
3.282654068E1,7.328019142E0,5.994020700E-1,-6.348158360E0
3.284535036E1,7.332805157E0,5.982056856E-1,-6.340980053E0
3.286416010E1,7.334001541E0,6.065805554E-1,-6.348158360E0
3.288296979E1,7.339983463E0,6.077769399E-1,-6.357729912E0
3.290177953E1,7.336394310E0,6.113662124E-1,-6.356533527E0
3.292058922E1,7.334001541E0,6.173482537E-1,-6.364908218E0
3.293939896E1,7.339983463E0,6.065805554E-1,-6.368497372E0
3.295820865E1,7.343572617E0,6.005984545E-1,-6.364908218E0
3.297701839E1,7.317251682E0,5.958128572E-1,-6.355337143E0
3.299582807E1,7.332805157E0,5.994020700E-1,-6.360122681E0
3.301463781E1,7.342376232E0,6.137589812E-1,-6.354140759E0
3.303344750E1,7.349554539E0,6.125625968E-1,-6.349354744E0
3.305225724E1,7.348358154E0,5.958128572E-1,-6.352943897E0
3.307106693E1,7.331608772E0,5.994020700E-1,-6.352943897E0
3.308987667E1,7.330412388E0,5.946164131E-1,-6.360122681E0
3.310868635E1,7.330412388E0,6.197410822E-1,-6.368497372E0
3.312749609E1,7.341179848E0,6.125625968E-1,-6.357729912E0
3.314630578E1,7.338787079E0,6.029912829E-1,-6.368497372E0
3.316511552E1,7.335197926E0,5.994020700E-1,-6.352943897E0
3.318392521E1,7.342376232E0,6.053841114E-1,-6.370890141E0
3.320273495E1,7.337590694E0,5.970092416E-1,-6.373282909E0
3.322154464E1,7.342376232E0,6.029912829E-1,-6.357729912E0
3.324035432E1,7.349554539E0,6.005984545E-1,-6.357729912E0
3.325916406E1,7.314858913E0,6.125625968E-1,-6.343372822E0
3.327797375E1,7.331608772E0,6.257231236E-1,-6.339783669E0
3.329678349E1,7.354340553E0,6.137589812E-1,-6.367300987E0
3.331559318E1,7.343572617E0,5.814558864E-1,-6.360122681E0
3.333440292E1,7.328019142E0,5.922235847E-1,-6.356533527E0
3.335321260E1,7.342376232E0,6.089733839E-1,-6.369693756E0
3.337202234E1,7.355536938E0,6.137589812E-1,-6.387639999E0
3.339083203E1,7.329215527E0,6.149554253E-1,-6.379265308E0
3.340964177E1,7.339983463E0,6.137589812E-1,-6.342176437E0
3.342845146E1,7.318448067E0,6.281159520E-1,-6.340980053E0
3.344726120E1,7.325626373E0,6.041877270E-1,-6.362515450E0
3.346607089E1,7.338787079E0,6.029912829E-1,-6.360122681E0
3.348488062E1,7.338787079E0,6.053841114E-1,-6.343372822E0
3.350369031E1,7.331608772E0,5.910272002E-1,-6.346961975E0
3.352250005E1,7.332805157E0,5.994020700E-1,-6.361319065E0
3.354130974E1,7.347161770E0,5.814558864E-1,-6.362515450E0
3.356011948E1,7.332805157E0,6.041877270E-1,-6.364908218E0
3.357892917E1,7.342376232E0,6.173482537E-1,-6.357729912E0
3.359773885E1,7.339983463E0,6.364908218E-1,-6.370890141E0
3.361654859E1,7.337590694E0,6.089733839E-1,-6.366104603E0
3.363535828E1,7.325626373E0,5.934200287E-1,-6.352943897E0
3.365416802E1,7.320840836E0,6.173482537E-1,-6.345765591E0
3.367297771E1,7.344769001E0,6.137589812E-1,-6.374479294E0
3.369178745E1,7.356733322E0,5.922235847E-1,-6.355337143E0
3.371059714E1,7.335197926E0,6.041877270E-1,-6.339783669E0
3.372940688E1,7.328019142E0,6.029912829E-1,-6.348158360E0
3.374821656E1,7.337590694E0,6.113662124E-1,-6.363711834E0
3.376702630E1,7.334001541E0,6.269195080E-1,-6.362515450E0
3.378583599E1,7.339983463E0,6.089733839E-1,-6.370890141E0
3.380464573E1,7.330412388E0,6.113662124E-1,-6.388836384E0
3.382345542E1,7.334001541E0,6.029912829E-1,-6.375676155E0
3.384226516E1,7.341179848E0,6.017948985E-1,-6.356533527E0
3.386107484E1,7.330412388E0,6.065805554E-1,-6.348158360E0
3.387988453E1,7.337590694E0,6.065805554E-1,-6.346961975E0
3.389869427E1,7.338787079E0,6.197410822E-1,-6.352943897E0
3.391750396E1,7.359126091E0,6.101697683E-1,-6.360122681E0
3.393631370E1,7.337590694E0,6.161518097E-1,-6.355337143E0
3.395512339E1,7.342376232E0,6.125625968E-1,-6.356533527E0
3.397393312E1,7.337590694E0,6.017948985E-1,-6.367300987E0
3.399274281E1,7.331608772E0,6.113662124E-1,-6.368497372E0
3.401155255E1,7.322037220E0,6.209374666E-1,-6.364908218E0
3.403036224E1,7.336394310E0,6.161518097E-1,-6.344569206E0
3.404917198E1,7.336394310E0,6.041877270E-1,-6.355337143E0
3.406798167E1,7.350750923E0,6.017948985E-1,-6.346961975E0
3.408679141E1,7.350750923E0,6.053841114E-1,-6.362515450E0
3.410560109E1,7.342376232E0,6.029912829E-1,-6.349354744E0
3.412441078E1,7.329215527E0,6.005984545E-1,-6.362515450E0
3.414322052E1,7.335197926E0,6.005984545E-1,-6.355337143E0
3.416203021E1,7.345965385E0,6.161518097E-1,-6.364908218E0
3.418083995E1,7.328019142E0,6.041877270E-1,-6.362515450E0
3.419964964E1,7.345965385E0,6.101697683E-1,-6.364908218E0
3.421845938E1,7.316055298E0,5.946164131E-1,-6.357729912E0
3.423726906E1,7.332805157E0,6.281159520E-1,-6.357729912E0
3.425607880E1,7.335197926E0,5.958128572E-1,-6.366104603E0
3.427488849E1,7.339983463E0,6.053841114E-1,-6.366104603E0
3.429369823E1,7.334001541E0,5.958128572E-1,-6.372086525E0
3.431250792E1,7.347161770E0,5.934200287E-1,-6.362515450E0
3.433131766E1,7.343572617E0,5.910272002E-1,-6.372086525E0
3.435012734E1,7.324429989E0,6.053841114E-1,-6.363711834E0
3.436893708E1,7.316055298E0,6.161518097E-1,-6.339783669E0
3.438774677E1,7.316055298E0,6.209374666E-1,-6.348158360E0
3.440655646E1,7.335197926E0,6.005984545E-1,-6.380461693E0
3.442536620E1,7.353144169E0,5.862415433E-1,-6.396014690E0
3.444417589E1,7.347161770E0,5.814558864E-1,-6.376872540E0
3.446298562E1,7.355536938E0,5.994020700E-1,-6.374479294E0
3.448179531E1,7.369893551E0,6.125625968E-1,-6.385247231E0
3.450060505E1,7.332805157E0,6.281159520E-1,-6.362515450E0
3.451941474E1,7.294519901E0,6.173482537E-1,-6.326622963E0
3.453822448E1,7.313662529E0,6.340979934E-1,-6.336194515E0
3.455703417E1,7.308876991E0,6.089733839E-1,-6.364908218E0
3.457584391E1,7.338787079E0,5.862415433E-1,-6.374479294E0
3.459465359E1,7.344769001E0,5.778666735E-1,-6.361319065E0
3.461346328E1,7.331608772E0,5.814558864E-1,-6.352943897E0
3.463227302E1,7.356733322E0,5.922235847E-1,-6.366104603E0
3.465108271E1,7.349554539E0,6.041877270E-1,-6.376872540E0
3.466989245E1,7.348358154E0,6.077769399E-1,-6.361319065E0
3.468870214E1,7.347161770E0,6.221339107E-1,-6.369693756E0
3.470751188E1,7.337590694E0,6.053841114E-1,-6.386443615E0
3.472632156E1,7.328019142E0,6.101697683E-1,-6.367300987E0
3.474513130E1,7.331608772E0,6.029912829E-1,-6.349354744E0
3.476394099E1,7.332805157E0,5.886343718E-1,-6.354140759E0
3.478275073E1,7.349554539E0,5.982056856E-1,-6.366104603E0
3.480156042E1,7.354340553E0,5.958128572E-1,-6.355337143E0
3.482037010E1,7.332805157E0,6.077769399E-1,-6.358926296E0
3.483917984E1,7.344769001E0,6.053841114E-1,-6.355337143E0
3.485798953E1,7.331608772E0,6.149554253E-1,-6.376872540E0
3.487679927E1,7.336394310E0,6.173482537E-1,-6.373282909E0
3.489560896E1,7.341179848E0,5.886343718E-1,-6.363711834E0
3.491441870E1,7.325626373E0,6.017948985E-1,-6.366104603E0
3.493322839E1,7.343572617E0,6.017948985E-1,-6.363711834E0
3.495203812E1,7.341179848E0,5.946164131E-1,-6.348158360E0
3.497084781E1,7.330412388E0,6.161518097E-1,-6.351747513E0
3.498965755E1,7.344769001E0,6.041877270E-1,-6.352943897E0
3.500846724E1,7.337590694E0,6.077769399E-1,-6.348158360E0
3.502727693E1,7.336394310E0,5.970092416E-1,-6.348158360E0
3.504608667E1,7.338787079E0,6.005984545E-1,-6.357729912E0
3.506489635E1,7.339983463E0,6.185446382E-1,-6.361319065E0
3.508370609E1,7.336394310E0,5.982056856E-1,-6.370890141E0
3.510251578E1,7.341179848E0,6.041877270E-1,-6.374479294E0
3.512132552E1,7.335197926E0,6.017948985E-1,-6.362515450E0
3.514013521E1,7.335197926E0,6.077769399E-1,-6.366104603E0
3.515894490E1,7.331608772E0,6.005984545E-1,-6.355337143E0
3.517775464E1,7.338787079E0,6.101697683E-1,-6.352943897E0
3.519656432E1,7.337590694E0,5.958128572E-1,-6.346961975E0
3.521537406E1,7.328019142E0,5.934200287E-1,-6.348158360E0
3.523418375E1,7.341179848E0,6.077769399E-1,-6.354140759E0
3.525299349E1,7.334001541E0,6.077769399E-1,-6.361319065E0
3.527180318E1,7.338787079E0,5.958128572E-1,-6.358926296E0
3.529061292E1,7.338787079E0,6.029912829E-1,-6.370890141E0
3.530942260E1,7.343572617E0,6.053841114E-1,-6.370890141E0
3.532823229E1,7.337590694E0,5.970092416E-1,-6.364908218E0
3.534704203E1,7.342376232E0,5.958128572E-1,-6.367300987E0
3.536585172E1,7.326822758E0,5.982056856E-1,-6.357729912E0
3.538466146E1,7.316055298E0,5.982056856E-1,-6.336194515E0
3.540347115E1,7.311269760E0,6.364908218E-1,-6.326622963E0
3.542228089E1,7.336394310E0,6.209374666E-1,-6.369693756E0
3.544109057E1,7.348358154E0,5.790630579E-1,-6.373282909E0
3.545990026E1,7.347161770E0,5.778666735E-1,-6.368497372E0
3.547871000E1,7.336394310E0,5.970092416E-1,-6.364908218E0
3.549751969E1,7.361518860E0,6.041877270E-1,-6.387639999E0
3.551632943E1,7.334001541E0,6.137589812E-1,-6.376872540E0
3.553513912E1,7.335197926E0,6.077769399E-1,-6.342176437E0
3.555394885E1,7.317251682E0,6.352944374E-1,-6.342176437E0
3.557275854E1,7.325626373E0,6.149554253E-1,-6.366104603E0
3.559156828E1,7.341179848E0,6.077769399E-1,-6.357729912E0
3.561037797E1,7.331608772E0,5.970092416E-1,-6.343372822E0
3.562918766E1,7.330412388E0,5.934200287E-1,-6.340980053E0
3.564799740E1,7.324429989E0,5.934200287E-1,-6.352943897E0
3.566680708E1,7.347161770E0,6.029912829E-1,-6.367300987E0
3.568561682E1,7.335197926E0,6.053841114E-1,-6.361319065E0
3.570442651E1,7.337590694E0,6.269195080E-1,-6.362515450E0
3.572323620E1,7.335197926E0,6.149554253E-1,-6.368497372E0
3.574204594E1,7.338787079E0,6.137589812E-1,-6.366104603E0
3.576085563E1,7.325626373E0,6.029912829E-1,-6.345765591E0
3.577966536E1,7.313662529E0,6.029912829E-1,-6.339783669E0
3.579847505E1,7.345965385E0,5.982056856E-1,-6.358926296E0
3.581728479E1,7.341179848E0,6.029912829E-1,-6.368497372E0
3.583609448E1,7.344769001E0,6.197410822E-1,-6.345765591E0
3.585490417E1,7.339983463E0,6.209374666E-1,-6.345765591E0
3.587371391E1,7.339983463E0,6.137589812E-1,-6.367300987E0
3.589252359E1,7.335197926E0,5.994020700E-1,-6.374479294E0
3.591133333E1,7.335197926E0,6.065805554E-1,-6.366104603E0
3.593014302E1,7.329215527E0,5.982056856E-1,-6.362515450E0
3.594895271E1,7.344769001E0,6.089733839E-1,-6.367300987E0
3.596776245E1,7.336394310E0,6.113662124E-1,-6.355337143E0
3.598657214E1,7.329215527E0,5.970092416E-1,-6.360122681E0
3.600538188E1,7.338787079E0,6.185446382E-1,-6.348158360E0
3.602419156E1,7.342376232E0,6.041877270E-1,-6.346961975E0
3.604300130E1,7.331608772E0,6.005984545E-1,-6.352943897E0
3.606181099E1,7.341179848E0,6.065805554E-1,-6.350551128E0
3.608062068E1,7.351947784E0,6.065805554E-1,-6.352943897E0
3.609943042E1,7.347161770E0,6.089733839E-1,-6.364908218E0
3.611824010E1,7.335197926E0,6.089733839E-1,-6.380461693E0
3.613704984E1,7.329215527E0,6.101697683E-1,-6.361319065E0
3.615585953E1,7.318448067E0,6.041877270E-1,-6.357729912E0
3.617466927E1,7.335197926E0,6.161518097E-1,-6.361319065E0
3.619347896E1,7.335197926E0,6.053841114E-1,-6.350551128E0
3.621228865E1,7.335197926E0,6.053841114E-1,-6.357729912E0
3.623109839E1,7.328019142E0,5.970092416E-1,-6.366104603E0
3.624990807E1,7.347161770E0,6.089733839E-1,-6.352943897E0
3.626871781E1,7.342376232E0,6.101697683E-1,-6.376872540E0
3.628752750E1,7.319644451E0,6.065805554E-1,-6.369693756E0
3.630633724E1,7.338787079E0,6.005984545E-1,-6.367300987E0
3.632514693E1,7.339983463E0,5.994020700E-1,-6.369693756E0
3.634395662E1,7.330412388E0,6.125625968E-1,-6.373282909E0
3.636276635E1,7.332805157E0,5.910272002E-1,-6.363711834E0
3.638157604E1,7.341179848E0,6.065805554E-1,-6.357729912E0
3.640038578E1,7.343572617E0,6.077769399E-1,-6.363711834E0
3.641919547E1,7.348358154E0,6.161518097E-1,-6.368497372E0
3.643800516E1,7.339983463E0,6.053841114E-1,-6.373282909E0
3.645681490E1,7.348358154E0,6.017948985E-1,-6.368497372E0
3.647562458E1,7.325626373E0,6.017948985E-1,-6.358926296E0
3.649443432E1,7.318448067E0,6.113662124E-1,-6.351747513E0
3.651324401E1,7.328019142E0,6.197410822E-1,-6.366104603E0
3.653205375E1,7.347161770E0,5.958128572E-1,-6.364908218E0
3.655086344E1,7.341179848E0,5.850451589E-1,-6.364908218E0
3.656967312E1,7.330412388E0,5.982056856E-1,-6.356533527E0
3.658848286E1,7.357929707E0,6.125625968E-1,-6.375676155E0
3.660729255E1,7.348358154E0,6.161518097E-1,-6.393621922E0
3.662610229E1,7.323233604E0,6.293123364E-1,-6.358926296E0
3.664491198E1,7.317251682E0,6.352944374E-1,-6.334998131E0
3.666372172E1,7.326822758E0,6.173482537E-1,-6.350551128E0
3.668253141E1,7.329215527E0,6.161518097E-1,-6.363711834E0
3.670134109E1,7.332805157E0,5.958128572E-1,-6.339783669E0
3.672015083E1,7.342376232E0,5.910272002E-1,-6.348158360E0
3.673896052E1,7.332805157E0,5.910272002E-1,-6.356533527E0
3.675777026E1,7.353144169E0,5.994020700E-1,-6.370890141E0
3.677657995E1,7.339983463E0,5.874379873E-1,-6.372086525E0
3.679538969E1,7.339983463E0,6.053841114E-1,-6.367300987E0
3.681419938E1,7.335197926E0,6.173482537E-1,-6.373282909E0
3.683300912E1,7.339983463E0,6.137589812E-1,-6.370890141E0
3.685181880E1,7.329215527E0,6.221339107E-1,-6.364908218E0
3.687062849E1,7.326822758E0,5.958128572E-1,-6.337390900E0
3.688943823E1,7.323233604E0,5.982056856E-1,-6.363711834E0
3.690824792E1,7.345965385E0,5.934200287E-1,-6.366104603E0
3.692705766E1,7.341179848E0,6.089733839E-1,-6.360122681E0
3.694586734E1,7.335197926E0,6.101697683E-1,-6.349354744E0
3.696467708E1,7.339983463E0,6.137589812E-1,-6.370890141E0
3.698348677E1,7.325626373E0,5.982056856E-1,-6.378068924E0
3.700229651E1,7.339983463E0,6.185446382E-1,-6.384050846E0
3.702110620E1,7.343572617E0,5.994020700E-1,-6.363711834E0
3.703991589E1,7.342376232E0,6.077769399E-1,-6.356533527E0
3.705872562E1,7.342376232E0,5.982056856E-1,-6.374479294E0
3.707753531E1,7.328019142E0,5.910272002E-1,-6.361319065E0
3.709634505E1,7.341179848E0,6.137589812E-1,-6.351747513E0
3.711515474E1,7.337590694E0,6.233302951E-1,-6.352943897E0
3.713396448E1,7.341179848E0,6.089733839E-1,-6.369693756E0
3.715277417E1,7.343572617E0,6.149554253E-1,-6.362515450E0
3.717158391E1,7.348358154E0,6.029912829E-1,-6.358926296E0
3.719039359E1,7.350750923E0,6.053841114E-1,-6.368497372E0
3.720920333E1,7.344769001E0,6.089733839E-1,-6.372086525E0
3.722801302E1,7.343572617E0,5.910272002E-1,-6.376872540E0
3.724682276E1,7.336394310E0,6.065805554E-1,-6.355337143E0
3.726563245E1,7.324429989E0,6.089733839E-1,-6.360122681E0
3.728444219E1,7.329215527E0,6.053841114E-1,-6.350551128E0
3.730325188E1,7.336394310E0,6.053841114E-1,-6.373282909E0
3.732206162E1,7.331608772E0,6.161518097E-1,-6.367300987E0
3.734087130E1,7.341179848E0,6.005984545E-1,-6.356533527E0
3.735968104E1,7.338787079E0,6.077769399E-1,-6.362515450E0
3.737849073E1,7.332805157E0,6.029912829E-1,-6.358926296E0
3.739730047E1,7.330412388E0,6.029912829E-1,-6.363711834E0
3.741611016E1,7.323233604E0,6.005984545E-1,-6.367300987E0
3.743491990E1,7.331608772E0,6.101697683E-1,-6.363711834E0
3.745372958E1,7.329215527E0,6.077769399E-1,-6.366104603E0
3.747253932E1,7.336394310E0,6.089733839E-1,-6.361319065E0
3.749134901E1,7.337590694E0,6.017948985E-1,-6.361319065E0
3.751015875E1,7.336394310E0,6.113662124E-1,-6.362515450E0
3.752896844E1,7.337590694E0,6.029912829E-1,-6.370890141E0
3.754777818E1,7.343572617E0,6.005984545E-1,-6.374479294E0
3.756658786E1,7.334001541E0,5.946164131E-1,-6.360122681E0
3.758539760E1,7.335197926E0,5.922235847E-1,-6.368497372E0
3.760420729E1,7.334001541E0,6.029912829E-1,-6.357729912E0
3.762301703E1,7.304090977E0,6.293123364E-1,-6.342176437E0
3.764182672E1,7.307680130E0,6.125625968E-1,-6.348158360E0
3.766063646E1,7.345965385E0,5.958128572E-1,-6.376872540E0
3.767944615E1,7.363911629E0,5.742774606E-1,-6.390032768E0
3.769825589E1,7.337590694E0,5.790630579E-1,-6.373282909E0
3.771706557E1,7.361518860E0,6.113662124E-1,-6.362515450E0
3.773587531E1,7.339983463E0,6.077769399E-1,-6.387639999E0
3.775468500E1,7.326822758E0,6.269195080E-1,-6.356533527E0
3.777349474E1,7.313662529E0,6.269195080E-1,-6.327819347E0
3.779230443E1,7.312466145E0,6.233302951E-1,-6.337390900E0
3.781111417E1,7.336394310E0,5.898307562E-1,-6.364908218E0
3.782992385E1,7.348358154E0,5.802595019E-1,-6.357729912E0
3.784873359E1,7.349554539E0,6.017948985E-1,-6.346961975E0
3.786754328E1,7.344769001E0,5.910272002E-1,-6.361319065E0
3.788635302E1,7.353144169E0,5.994020700E-1,-6.363711834E0
3.790516271E1,7.345965385E0,5.946164131E-1,-6.378068924E0
3.792397245E1,7.335197926E0,6.053841114E-1,-6.370890141E0
3.794278219E1,7.341179848E0,6.209374666E-1,-6.361319065E0
3.796159188E1,7.339983463E0,6.077769399E-1,-6.380461693E0
3.798040162E1,7.328019142E0,6.005984545E-1,-6.360122681E0
3.799921130E1,7.331608772E0,5.970092416E-1,-6.336194515E0
3.801802104E1,7.336394310E0,5.838487148E-1,-6.362515450E0
3.803683073E1,7.351947784E0,5.994020700E-1,-6.372086525E0
3.805564047E1,7.337590694E0,5.934200287E-1,-6.358926296E0
3.807445016E1,7.323233604E0,6.245267391E-1,-6.336194515E0
3.809325990E1,7.331608772E0,5.982056856E-1,-6.354140759E0
3.811206958E1,7.335197926E0,6.065805554E-1,-6.378068924E0
3.813087932E1,7.338787079E0,6.053841114E-1,-6.372086525E0
3.814968906E1,7.337590694E0,6.065805554E-1,-6.375676155E0
3.816849875E1,7.342376232E0,5.946164131E-1,-6.361319065E0
3.818730849E1,7.341179848E0,6.089733839E-1,-6.363711834E0
3.820611818E1,7.337590694E0,5.958128572E-1,-6.352943897E0
3.822492792E1,7.322037220E0,6.077769399E-1,-6.352943897E0
3.824373760E1,7.337590694E0,5.982056856E-1,-6.355337143E0
3.826254734E1,7.330412388E0,5.994020700E-1,-6.356533527E0
3.828135708E1,7.339983463E0,5.982056856E-1,-6.367300987E0
3.830016677E1,7.338787079E0,6.017948985E-1,-6.372086525E0
3.831897651E1,7.339983463E0,6.077769399E-1,-6.372086525E0
3.833778620E1,7.332805157E0,6.029912829E-1,-6.368497372E0
3.835659594E1,7.322037220E0,5.958128572E-1,-6.368497372E0
3.837540562E1,7.337590694E0,6.005984545E-1,-6.361319065E0
3.839421536E1,7.325626373E0,6.017948985E-1,-6.356533527E0
3.841302510E1,7.324429989E0,6.137589812E-1,-6.369693756E0
3.843183479E1,7.337590694E0,6.101697683E-1,-6.360122681E0
3.845064453E1,7.324429989E0,6.077769399E-1,-6.362515450E0
3.846945422E1,7.335197926E0,6.137589812E-1,-6.354140759E0
3.848826396E1,7.326822758E0,6.029912829E-1,-6.369693756E0
3.850707365E1,7.335197926E0,6.065805554E-1,-6.374479294E0
3.852588339E1,7.329215527E0,6.017948985E-1,-6.363711834E0
3.854469312E1,7.341179848E0,6.029912829E-1,-6.361319065E0
3.856350281E1,7.331608772E0,6.077769399E-1,-6.364908218E0
3.858231255E1,7.344769001E0,5.934200287E-1,-6.380461693E0
3.860112229E1,7.336394310E0,5.970092416E-1,-6.355337143E0
3.861993198E1,7.331608772E0,6.041877270E-1,-6.375676155E0
3.863874172E1,7.325626373E0,6.209374666E-1,-6.352943897E0
3.865755141E1,7.317251682E0,6.197410822E-1,-6.354140759E0
3.867636115E1,7.339983463E0,6.017948985E-1,-6.366104603E0
3.869517083E1,7.349554539E0,5.826523304E-1,-6.376872540E0
3.871398057E1,7.335197926E0,5.682953596E-1,-6.373282909E0
3.873279031E1,7.335197926E0,5.886343718E-1,-6.355337143E0
3.875160000E1,7.363911629E0,6.101697683E-1,-6.375676155E0
3.877040974E1,7.331608772E0,6.161518097E-1,-6.372086525E0
3.878921948E1,7.334001541E0,6.173482537E-1,-6.354140759E0
3.880802917E1,7.318448067E0,6.317051649E-1,-6.349354744E0
3.882683891E1,7.311269760E0,6.101697683E-1,-6.364908218E0
3.884564859E1,7.334001541E0,5.898307562E-1,-6.368497372E0
3.886445833E1,7.338787079E0,6.017948985E-1,-6.339783669E0
3.888326807E1,7.318448067E0,5.934200287E-1,-6.350551128E0
3.890207776E1,7.347161770E0,5.790630579E-1,-6.364908218E0
3.892088750E1,7.338787079E0,5.910272002E-1,-6.362515450E0
3.893969719E1,7.345965385E0,5.970092416E-1,-6.356533527E0
3.895850693E1,7.331608772E0,6.005984545E-1,-6.355337143E0
