"Time (s)","Gyroscope x (rad/s)","Gyroscope y (rad/s)","Gyroscope z (rad/s)"
1.139573660E-1,2.328855172E-2,-7.681404054E-2,1.695101149E-2
1.327670540E-1,2.603736520E-2,-1.235438585E-1,2.794626169E-2
1.515767410E-1,4.314108938E-2,-1.632489264E-1,2.702999115E-2
1.703864290E-1,4.405735806E-2,-1.449235082E-1,2.092151903E-2
1.891960640E-1,2.328855172E-2,-1.104106456E-1,1.206423342E-2
2.080057520E-1,7.406522986E-3,-6.093201414E-2,-2.596100792E-3
2.268154390E-1,4.657710437E-3,-1.236965694E-2,-1.939439960E-2
2.456250750E-1,1.137703005E-2,-1.756185852E-2,-8.704573847E-3
2.644347620E-1,2.603736520E-2,-3.924693540E-2,1.068982761E-3
2.832444500E-1,3.520007432E-2,-7.406523079E-2,1.023169141E-2
3.020540850E-1,4.863871261E-2,-1.592784226E-1,2.794626169E-2
3.208637730E-1,1.078908965E-1,-3.626905680E-1,4.199574888E-2
3.396734600E-1,2.102078199E-1,-6.690304875E-1,2.702999115E-2
3.584830960E-1,2.908396423E-1,-1.127776742E0,1.450762246E-2
3.772927830E-1,3.531460762E-1,-1.678761005E0,-3.512371797E-3
3.961024710E-1,2.920613587E-1,-2.092609882E0,-9.055810422E-2
4.149121060E-1,1.824142635E-1,-2.122541428E0,-9.116895497E-2
4.337217940E-1,2.044047713E-1,-1.960972428E0,-3.863608837E-2
4.525314810E-1,1.775274873E-1,-1.965553761E0,-7.925742865E-2
4.713411160E-1,7.246175408E-2,-1.442363143E0,-7.773031294E-2
4.901508040E-1,-1.829487532E-1,-5.077667832E-1,-2.458660305E-2
5.089604910E-1,-4.456130862E-1,6.490252167E-2,-2.244863659E-2
5.277701270E-1,-4.227063060E-1,-8.811471611E-2,-2.336490713E-2
5.465798140E-1,-2.024958730E-1,-2.454078794E-1,-2.367033064E-2
5.653895020E-1,8.651123941E-2,-2.008160353E-1,-1.664558798E-2
5.841991370E-1,2.138728946E-1,-5.329642445E-2,-6.001574174E-2
6.030088250E-1,2.419718653E-1,6.612421572E-2,-9.269607067E-2
6.218184600E-1,2.447206825E-1,1.938676536E-1,-7.223268598E-2
6.406281480E-1,2.465532273E-1,1.300341040E-1,-7.742489129E-2
6.594378350E-1,2.612135708E-1,-5.543438718E-2,-6.154286116E-2
6.782474710E-1,2.251735777E-1,-3.019112647E-1,-1.817270555E-2
6.970571580E-1,1.741678268E-1,-5.154023767E-1,3.436015919E-2
7.158668460E-1,1.646996886E-1,-7.566870451E-1,1.409530044E-1
7.346764810E-1,1.711135954E-1,-9.762866497E-1,1.718007922E-1
7.534861690E-1,2.825932205E-1,-1.317750216E0,1.214058921E-1
7.722958560E-1,5.480063558E-1,-1.967997193E0,5.604523420E-2
7.911054910E-1,9.514709711E-1,-2.492409468E0,-7.788302377E-3
8.099151790E-1,1.041876316E0,-2.600911379E0,-4.596625641E-2
8.287248660E-1,6.484907269E-1,-2.346416950E0,-1.145338640E-2
8.475345020E-1,2.877854109E-1,-1.713579297E0,1.901262105E-1
8.663441890E-1,-2.101314515E-1,-7.756233215E-1,4.185830951E-1
8.851538250E-1,-6.981984377E-1,-1.663031727E-1,4.020902216E-1
9.039635120E-1,-8.133431077E-1,-2.053973973E-1,4.039227366E-1
9.227732000E-1,-5.430431962E-1,-8.254073858E-1,3.782671690E-1
9.415828350E-1,-9.918632358E-2,-1.639361382E0,3.950654566E-1
9.603925230E-1,9.017632902E-2,-2.200119019E0,5.689278841E-1
9.792021580E-1,3.611634299E-2,-2.444458008E0,6.938461065E-1
9.980118460E-1,-1.538571566E-1,-2.353441715E0,8.474742174E-1
1.016821533E0,-5.070032477E-1,-2.053821087E0,1.084177494E0
1.035631169E0,-7.666133046E-1,-1.964942932E0,1.125409722E0
1.054440856E0,-9.223793745E-1,-2.025722265E0,9.717816114E-1
1.073250491E0,-9.684983492E-1,-2.040993452E0,9.577321410E-1
1.092060179E0,-9.394831061E-1,-1.903858185E0,9.317711592E-1
1.110869814E0,-8.005153537E-1,-1.979297876E0,7.659261227E-1
1.129679502E0,-5.195255876E-1,-2.039466381E0,4.042281806E-1
1.148489189E0,-3.677300513E-1,-1.787186384E0,1.800472289E-1
1.167298825E0,-3.210002482E-1,-1.264606595E0,3.558185324E-2
1.186108512E0,-5.580089688E-1,-5.114318728E-1,1.725643501E-2
1.204918148E0,-9.333745837E-1,-1.259872466E-1,1.027750522E-1
1.223727835E0,-1.440377831E0,3.227564096E-1,1.256818175E-1
1.242537471E0,-1.915006161E0,9.846094251E-1,1.601946950E-1
1.261347158E0,-1.946159363E0,1.326989293E0,4.797441661E-1
1.280156846E0,-1.711288571E0,8.016606569E-1,7.509603500E-1
1.298966481E0,-1.442821264E0,6.361210346E-1,4.940990806E-1
1.317776169E0,-1.017060637E0,5.741200447E-1,2.402156889E-1
1.336585804E0,-5.488462448E-1,3.682645559E-1,8.811471611E-2
1.355395491E0,-3.289412558E-1,4.672217965E-1,-1.756185852E-2
1.374205127E0,-3.796415627E-1,6.239041090E-1,1.339282542E-1
1.393014814E0,-5.525113344E-1,7.613447309E-1,6.092438102E-1
1.411824502E0,-6.817055345E-1,8.578585982E-1,9.946883917E-1
1.430634137E0,-5.625903010E-1,6.715502143E-1,1.208484888E0
1.449443825E0,-2.037175596E-1,3.924693540E-2,1.209401250E0
1.468253460E0,-2.954973653E-2,-1.082726792E-1,9.916341901E-1
1.487063148E0,1.173590273E-1,-3.113794029E-1,8.251782656E-1
1.505872783E0,2.822877765E-1,-3.941491842E-1,5.383855104E-1
1.524682471E0,3.800233603E-1,-7.040014863E-2,1.681357026E-1
1.543492106E0,5.229616165E-1,3.963635266E-1,-2.356343269E-1
1.562301794E0,6.271110773E-1,7.072847486E-1,-5.645755529E-1
1.581111429E0,4.533250332E-1,6.110763550E-1,-5.007420182E-1
1.599921116E0,-3.026748300E-1,-1.110214889E-1,-1.522536725E-1
1.618730752E0,-4.627167881E-1,-4.592044353E-1,3.260397315E-1
1.637540439E0,-4.217900336E-1,-1.018435121E0,3.629959822E-1
1.656350127E0,-3.478775024E-1,-1.099372387E0,-8.597674966E-2
1.675159762E0,-3.689517379E-1,-8.721371889E-1,-4.124746025E-1
1.693969450E0,-4.220954478E-1,-9.542961121E-1,-5.627430081E-1
1.712779085E0,-5.393781066E-1,-1.261857748E0,-6.846070886E-1
1.731588773E0,-6.239804626E-1,-1.602099657E0,-6.534538269E-1
1.750398408E0,-7.131641507E-1,-1.567586780E0,-4.231644273E-1
1.769208096E0,-7.785248160E-1,-1.326607585E0,-2.890834510E-1
1.788017731E0,-7.647807598E-1,-9.103151560E-1,-3.802524135E-2
1.806827419E0,-6.728482842E-1,-8.275453448E-1,5.417451859E-1
1.825637054E0,-6.294780970E-1,-7.829535007E-1,1.100059509E0
1.844443333E0,-5.567872524E-1,-3.312319219E-1,1.008432508E0
1.863252969E0,-5.955760479E-1,-5.352548957E-1,4.063661397E-1
1.882062656E0,-4.837910235E-1,-8.516737819E-1,1.363716573E-1
1.900872292E0,-2.162399292E-1,-1.019962192E0,1.345391124E-1
1.919681979E0,-4.818057641E-2,-1.201994658E0,1.302631795E-1
1.938491615E0,-2.069245093E-2,-1.311641812E0,-5.482354015E-2
1.957301302E0,5.016583204E-2,-1.397465825E0,-3.669664860E-1
1.976110938E0,5.291464552E-2,-1.330578089E0,-4.851654470E-1
1.994920625E0,1.115559787E-1,-1.309809208E0,-4.805840850E-1
2.013730261E0,1.222458109E-1,-1.054780483E0,-3.791834414E-1
2.032539948E0,2.053210288E-1,-1.116170645E0,-3.132119179E-1
2.051349583E0,3.555894494E-1,-1.209324837E0,7.406523079E-2
2.070159271E0,6.545991898E-1,-1.349514365E0,4.344651103E-1
2.088968906E0,8.589276075E-1,-1.438698053E0,4.595098495E-1
2.107778594E0,1.016831636E0,-2.121625185E0,2.725905776E-1
2.126588229E0,1.067226529E0,-2.545553207E0,2.576248348E-1
2.145397865E0,1.155799389E0,-2.618015051E0,4.075878263E-1
2.164207552E0,1.063866854E0,-1.819255829E0,7.240830660E-1
2.183017240E0,8.754204512E-1,-1.277739763E0,1.084482908E0
2.201826875E0,1.222992539E0,-7.206470370E-1,1.702049494E0
2.220636511E0,1.660664678E0,-1.423732281E0,2.010832787E0
2.239446198E0,1.374177217E0,-1.997317791E0,1.418616414E0
2.258255886E0,6.454364657E-1,-9.881981611E-1,7.567633986E-1
2.277065521E0,-1.315612346E-1,-5.726693198E-2,2.163926363E-1
2.295875156E0,-3.628432751E-1,2.070008665E-1,1.522536725E-1
2.314684844E0,-1.550788432E-1,-2.930539846E-1,2.063136548E-1
2.333494479E0,2.184542567E-1,-8.657232523E-1,2.704526186E-1
2.352304167E0,2.114295065E-1,-5.267030597E-1,2.417428046E-1
2.371113802E0,-1.443890184E-1,-4.443913698E-2,1.223221645E-1
2.389923490E0,-3.011476994E-1,3.007659316E-1,4.963133857E-2
2.408733125E0,-5.558710098E-1,5.820610523E-1,-5.604523420E-2
2.427542813E0,-7.372926474E-1,3.380275965E-1,-9.086353332E-2
2.446352448E0,-7.324058414E-1,4.352286831E-2,-1.861557066E-1
2.465162136E0,-7.382088900E-1,4.211028218E-1,-3.077143133E-1
2.483971771E0,-7.879929543E-1,8.679376245E-1,-2.347180545E-1
2.502781458E0,-5.262449384E-1,5.151733160E-1,9.926267900E-3
2.521591094E0,-2.061609477E-1,-9.177979827E-2,1.843231618E-1
2.540400729E0,-1.025459841E-1,-4.057552814E-1,2.270824611E-1
2.559210417E0,3.550549597E-2,-5.451811850E-2,5.026509166E-1
2.578020052E0,1.240783483E-1,-4.527905285E-1,7.078956366E-1
2.596829740E0,3.962107897E-1,-3.773508966E-1,1.180385947E0
2.615639375E0,5.266267061E-1,-9.177979827E-2,1.656541467E0
2.634449063E0,5.852680206E-1,3.111503124E-1,2.032823324E0
2.653258698E0,4.102602899E-1,5.228089094E-1,2.132696867E0
2.672068386E0,1.504211407E-2,5.518241525E-1,1.920427442E0
2.690878021E0,-4.049917459E-1,4.238516390E-1,1.673034310E0
2.709687656E0,-6.407787800E-1,4.259895980E-1,1.604313970E0
2.728497344E0,-6.920899153E-1,6.856760383E-2,1.410980821E0
2.747306979E0,-8.099834919E-1,-3.901786804E-1,7.411867976E-1
2.766116667E0,-8.481613994E-1,-4.787515402E-1,4.375193417E-1
2.784926302E0,-6.716265678E-1,-4.317162931E-1,6.477271914E-1
2.803735990E0,-1.556897014E-1,-2.890834510E-1,8.187643886E-1
2.822545625E0,1.760003716E-1,-1.021642014E-1,6.623874903E-1
2.841355313E0,4.093440175E-1,2.214321308E-2,5.796176791E-1
2.860164948E0,5.935144424E-1,-1.605001241E-1,4.937936664E-1
2.878974583E0,5.241833329E-1,-4.860817194E-1,3.697153032E-1
2.897784271E0,2.538833916E-1,-8.031114340E-1,3.126010895E-1
2.916593906E0,1.964637488E-1,-1.314848661E-1,3.110739589E-1
2.935403594E0,1.143047959E-1,5.142570138E-1,-3.863608837E-2
2.954213229E0,8.590039611E-2,7.689803243E-1,-2.557922900E-1
2.973022917E0,-5.887040496E-2,1.004156590E0,-4.463766217E-1
2.991832552E0,-1.275143679E-2,1.446715355E0,-5.132644176E-1
3.010642240E0,6.024480984E-2,1.443966508E0,-9.116895497E-2
3.029451875E0,1.188861504E-1,1.386852384E0,4.637857676E-1
3.048261511E0,2.074590027E-1,1.019427776E0,8.661050797E-1
3.067071198E0,1.176644564E-1,5.096756816E-1,9.406284094E-1
3.085880833E0,-5.092938989E-2,5.643464923E-1,7.094227076E-1
3.104690521E0,-1.954711229E-1,1.158700943E0,4.323271513E-1
3.123500156E0,-2.666348219E-1,1.278732419E0,2.182251811E-1
3.142309844E0,-3.057290614E-1,1.078679919E0,2.641914412E-2
3.161119479E0,-4.740174711E-1,1.065546632E0,-1.452289373E-1
3.179929115E0,-6.859814525E-1,1.122355461E0,-2.396048307E-1
3.198738802E0,-8.438854814E-1,1.293698192E0,-7.284353673E-2
3.217548438E0,-9.923213720E-1,1.233224273E0,1.626380831E-1
3.236358125E0,-1.113574505E0,6.342885494E-1,2.609844804E-1
3.255167761E0,-1.030499339E0,-5.117372870E-1,2.061609551E-2
3.273977448E0,-7.727217674E-1,-1.232842445E0,-3.599417508E-1
3.292787083E0,-3.833066523E-1,-1.030041218E0,-3.046600819E-1
3.311596719E0,-1.196497083E-1,-3.379512429E-1,7.635590737E-4
3.330406406E0,-1.205659807E-1,-2.628170252E-1,3.512371797E-3
3.349216042E0,-2.009687424E-1,-7.414158583E-1,-2.350234836E-1
3.368025729E0,-2.351761907E-1,-1.482984424E0,-3.016058207E-1
3.386835365E0,-3.142809272E-1,-1.899276853E0,-3.394783735E-1
3.405645000E0,-3.897205591E-1,-1.654937983E0,-3.736858070E-1
3.424454688E0,-1.808107942E-1,-1.101815701E0,-3.321481943E-1
3.443264323E0,3.769691288E-1,-1.885990947E-1,-1.204896197E-1
3.462074011E0,7.694385052E-1,7.744779587E-1,-1.009425074E-1
3.480883646E0,8.338828683E-1,1.244830370E0,-3.431434333E-1
3.499693333E0,8.231930137E-1,1.459237695E0,-7.902836204E-1
3.518502969E0,4.734829962E-1,1.205430746E0,-1.045617819E0
3.537312604E0,6.879667193E-2,8.847358823E-1,-1.002247691E0
3.556122292E0,-8.727480471E-2,9.079480767E-1,-7.768449783E-1
3.574931927E0,1.839413792E-1,1.287284255E0,-5.325061083E-1
3.593741615E0,5.846571922E-1,1.567663193E0,-3.260397315E-1
3.612551250E0,8.854994774E-1,1.472370982E0,-5.355603099E-1
3.631360938E0,9.933140278E-1,9.772792459E-1,-5.905365944E-1
3.650170573E0,1.131060004E0,1.004462004E0,-4.763081372E-1
3.668980208E0,1.197642446E0,1.505051255E0,-5.688515306E-1
3.687789896E0,1.170154333E0,1.294614434E0,-3.782671690E-1
3.706599531E0,1.169848800E0,1.364251018E0,-4.750864506E-1
3.725409219E0,1.029048562E0,9.723924994E-1,-6.769714952E-1
3.744218854E0,8.848885894E-1,5.826719403E-1,-5.975613594E-1
3.763028542E0,6.741462946E-1,1.874537468E-1,-4.103366435E-1
3.781838177E0,4.209501147E-1,-4.718795046E-2,-4.494308829E-1
3.800647813E0,2.547996640E-1,2.271588296E-1,-3.990359604E-1
3.819457500E0,7.635590737E-5,6.309288740E-1,-2.377723008E-1
3.838267136E0,-1.010188684E-1,9.415447116E-1,-1.794363856E-1
3.857076823E0,-4.909684882E-2,7.793647647E-1,-1.721062213E-1
3.875886458E0,1.076618303E-2,4.290438294E-1,-1.632489264E-1
3.894696146E0,5.780142173E-2,1.969218850E-1,-5.024218559E-2
3.913505781E0,7.918107510E-2,-2.153236605E-2,6.612421572E-2
3.932315417E0,7.795938104E-2,-6.123743951E-2,2.108950168E-1
3.951125104E0,3.794888780E-2,-1.482831687E-1,1.998997629E-1
3.969934740E0,3.581092134E-2,-1.644706279E-1,5.650337320E-3
3.988744427E0,7.551599294E-2,-2.295258641E-1,-4.107947648E-2
4.007554063E0,1.213295385E-1,-3.831539452E-1,7.375980914E-2
4.026363698E0,1.479013860E-1,-4.152234197E-1,1.021642014E-1
4.045173386E0,1.317139417E-1,-4.469874799E-1,1.055238619E-1
4.063983021E0,2.141783237E-1,-4.057552814E-1,9.177979827E-2
4.082792708E0,2.242573053E-1,-5.120427012E-1,1.168245375E-1
4.101602344E0,2.462477982E-1,-2.341072112E-1,1.146865711E-1
4.120412031E0,7.068266273E-1,1.346230984E0,1.650814712E-1
4.139221667E0,1.321949840E0,2.816005945E0,6.663579941E-1
4.158031302E0,1.315841317E0,1.360585928E0,2.154763639E-1
4.176840990E0,9.096279144E-1,-1.224596024E0,-2.289150059E-1
4.195650625E0,-5.827482939E-1,-4.544322014E0,1.457710624E0
4.214460313E0,-2.970932007E0,-6.766049862E0,4.749642849E0
4.233269948E0,-4.156891823E0,-3.723953962E0,4.488811016E0
4.252079636E0,-4.078092575E0,-3.245126009E-1,2.667798996E0
4.270889271E0,-3.617819309E0,2.324197531E0,1.009348750E0
4.289698958E0,-2.050308943E0,4.577689171E0,8.093725890E-3
4.308508594E0,2.712009192E0,5.707527637E0,-3.324536085E-1
4.327318281E0,1.785582900E0,4.753613472E0,-3.804051280E-1
4.346127917E0,1.613400280E-1,1.143124342E0,-7.056813240E-1
4.364937552E0,-3.652866483E-1,-1.986322522E0,-6.012263894E-1
4.383747240E0,-4.367557764E-1,-2.469197273E0,-2.722851634E-1
4.402556875E0,-5.784723759E-1,-8.675557971E-1,-5.573981255E-2
4.421366563E0,-2.021904439E-1,7.411867976E-1,2.061609551E-2
4.440176198E0,2.981698215E-1,7.601230741E-1,-4.474456236E-2
4.458985886E0,1.521773189E-1,-3.069507517E-2,3.206948051E-3
4.477795521E0,-6.406260282E-2,-3.984251320E-1,3.497100621E-2
4.496605208E0,-9.460496902E-2,-1.247655526E-1,2.367033064E-2
4.515414844E0,-1.641651988E-2,1.159846261E-1,-3.817795310E-3
4.534224479E0,2.848075330E-2,4.734066315E-3,-3.206948051E-3
4.553034167E0,1.229330152E-2,-7.131642103E-2,2.153236605E-2
4.571843802E0,-1.211768240E-1,-1.693574041E-1,8.200624585E-2
4.590653490E0,-2.388412803E-1,-3.455868363E-1,4.016320780E-2
4.609463125E0,-1.016297117E-1,-2.032594234E-1,-9.926267900E-3
4.628272813E0,1.646996886E-1,3.276431859E-1,-9.758284688E-2
4.647082448E0,-2.241809368E-1,-3.471139669E-1,-2.428117767E-2
4.665892136E0,-5.387672782E-1,-1.415791273E0,-9.926267900E-3
4.684701771E0,-1.425564736E-1,-7.185090780E-1,7.681404054E-2
4.703511406E0,-1.120141149E-1,-5.039489828E-3,5.696150661E-2
4.722321094E0,2.804552615E-1,1.312328935E0,-4.779879749E-2
4.741130729E0,5.855734348E-1,2.297930956E0,4.840964451E-2
4.759940417E0,3.024457395E-1,1.742976308E0,-4.352286831E-2
4.778750052E0,-1.123195365E-1,1.282015741E-1,-1.180462316E-1
4.797559740E0,-8.238802105E-2,-2.930539846E-1,-8.719844371E-2
4.816369375E0,-4.665346071E-2,1.480541080E-1,-1.543916464E-1
4.835179063E0,-2.947337925E-1,-1.186570823E-1,-1.162136942E-1
4.853988698E0,6.085565686E-2,8.044095039E-1,1.910424829E-1
4.872798333E0,2.682383060E-1,1.229864597E0,1.687465608E-1
4.891608021E0,4.188121557E-1,1.163893104E0,4.123218823E-3
4.910417656E0,6.032879949E-1,7.405759692E-1,-1.519482583E-1
4.929227344E0,9.071845412E-1,2.885489762E-1,-3.571929336E-1
4.948036979E0,1.192755580E0,1.282015741E-1,-3.458922505E-1
4.966846667E0,1.478326678E0,2.989333868E-1,-2.854183912E-1
4.985656302E0,1.651807308E0,4.827983975E-1,-4.657710344E-2
5.004465990E0,1.765730381E0,5.148679018E-1,9.513945878E-2
5.023275625E0,2.192712545E0,8.010498285E-1,1.846285909E-1
5.042085313E0,2.747743607E0,1.324851394E0,4.934882224E-1
5.060894948E0,2.998801947E0,1.512076020E0,6.471163034E-1
5.079704583E0,3.044920921E0,1.517268181E0,4.549284875E-1
5.098514271E0,3.120360613E0,1.548115969E0,7.479060888E-1
5.117323906E0,2.901066303E0,1.403650641E0,7.891383171E-1
5.136133594E0,2.558686495E0,8.037986159E-1,4.992912710E-1
5.154943229E0,1.929131985E0,9.116895497E-2,3.206948051E-3
5.173752917E0,1.177789927E0,-5.486935377E-1,-3.263451457E-1
5.192562552E0,7.865421772E-1,-5.767925382E-1,-5.398362875E-1
5.211372240E0,6.671215892E-1,-7.192726433E-2,-6.253548861E-1
5.230181875E0,4.218663871E-1,-7.192726433E-2,-3.862081766E-1
5.248991563E0,1.173590273E-1,3.802524135E-2,-2.518217862E-1
5.267801198E0,-2.348707765E-1,1.730988473E-1,-1.965401024E-1
5.286610886E0,-4.550811946E-1,1.071273386E-1,-1.259872466E-1
5.305420521E0,-4.908157587E-1,1.786728203E-2,-6.398624927E-2
5.324230208E0,-4.245388508E-1,-1.152974218E-1,-4.443913698E-2
5.343039844E0,-2.843494117E-1,-2.475458533E-1,-4.077405483E-2
5.361849531E0,-1.440836042E-1,-2.533488870E-1,-3.527642787E-2
5.380659219E0,-7.475243509E-2,-2.310529798E-1,-3.863608837E-2
5.399468854E0,-3.199312463E-2,-2.988570333E-1,-8.933641016E-2
5.418278542E0,-4.695888236E-2,-3.581092060E-1,-1.589729935E-1
5.437088177E0,-9.093988687E-2,-4.182776511E-1,-2.154763639E-1
5.455897865E0,-1.614927500E-1,-4.570664763E-1,-2.866400778E-1
5.474707500E0,-2.070772201E-1,-4.259132445E-1,-3.397837877E-1
5.493517188E0,-2.324273884E-1,-3.367295563E-1,-3.138227761E-1
5.512326823E0,-2.192941606E-1,-2.741177082E-1,-2.163926363E-1
5.531136511E0,-2.336490750E-1,-2.524326444E-1,-1.656923145E-1
5.549946146E0,-2.382304370E-1,-3.425326049E-1,-1.626380831E-1
5.568755833E0,-2.428117841E-1,-4.338542521E-1,-1.837123185E-1
5.587565521E0,-2.312056869E-1,-4.784461260E-1,-1.953184158E-1
5.606375156E0,-2.669402659E-1,-4.442386627E-1,-2.099787444E-1
5.625184844E0,-3.374931216E-1,-3.761292100E-1,-2.139492482E-1
5.643994479E0,-4.553866386E-1,-4.570664763E-1,-1.504211426E-1
5.662804167E0,-6.456655264E-1,-5.664080977E-1,-1.412584335E-1
5.681613802E0,-9.202414155E-1,-9.170344472E-1,-1.171299592E-1
5.700423490E0,-1.282168388E0,-1.440835953E0,3.817795310E-3
5.719233177E0,-1.532921195E0,-1.232537031E0,-2.231119573E-1
5.738042813E0,-1.876217365E0,-1.449693203E0,-2.680092454E-1
5.756852500E0,-2.092151880E0,-1.778329134E0,-1.632489264E-1
5.775662136E0,-2.214321375E0,-2.109102964E0,2.290677279E-3
5.794471823E0,-2.147128105E0,-2.319234371E0,2.933593988E-1
5.813281511E0,-1.928139329E0,-2.144837379E0,6.367319226E-1
5.832091146E0,-1.713732004E0,-1.236202121E0,7.350783348E-1
5.850900833E0,-1.651120186E0,-7.884510756E-1,6.917081475E-1
5.869710469E0,-1.621494055E0,-1.040731072E0,7.277481556E-1
5.888520156E0,-1.514901161E0,-1.243837714E0,6.147413850E-1
5.907329844E0,-1.251931429E0,-1.248113632E0,5.136461854E-1
5.926139479E0,-9.816315174E-1,-8.174663186E-1,5.796176791E-1
5.944949167E0,-7.568397522E-1,-4.362976551E-1,5.316661596E-1
5.963758854E0,-5.314370990E-1,-2.350234836E-1,3.520007432E-1
5.982568490E0,-2.669402659E-1,-7.192726433E-2,1.369825006E-1
6.001378177E0,-5.062396824E-2,1.682120711E-1,-3.100049868E-2
6.020187865E0,1.839413792E-1,8.689302206E-2,-8.017370105E-2
6.038997500E0,3.943782747E-1,-1.543916464E-1,1.931804419E-1
6.057807188E0,5.883222818E-1,5.085303262E-2,3.703261614E-1
6.076616875E0,6.365792155E-1,3.160370886E-1,4.338542521E-1
6.095426563E0,6.536829472E-1,3.474957347E-1,5.393017530E-1
6.114236198E0,5.330405831E-1,3.926984370E-1,5.319716334E-1
6.133045886E0,3.681118190E-1,1.477486789E-1,2.753393948E-1
6.151855573E0,9.964445978E-2,-2.441861928E-1,1.220167428E-1
6.170665208E0,-8.849649876E-2,-1.577513069E-1,4.840964451E-2
6.189474896E0,-2.400629669E-1,-3.626905680E-1,-3.497100621E-2
6.208284583E0,-5.870242119E-1,-2.249445021E-1,-1.053711493E-2
6.227094271E0,-8.121214509E-1,3.966689408E-1,3.894151375E-2
6.245903906E0,-1.229941010E0,1.419838071E0,-8.017370105E-2
6.264713594E0,-1.022863746E0,1.348674417E0,3.565820754E-1
6.283523281E0,-7.055285573E-1,7.023980021E-1,8.444199562E-1
6.302332969E0,-1.028361320E0,5.619031191E-1,3.990359604E-1
6.321142604E0,-1.319430113E0,5.936672091E-1,-1.137702987E-1
6.339952292E0,-1.037829518E0,7.033142447E-1,-2.163926363E-1
6.358761979E0,-4.996730685E-1,5.686224699E-1,-1.678302884E-1
6.377571667E0,-1.291178465E-1,3.090123534E-1,-2.615953386E-1
6.396381354E0,1.311030984E-1,1.856212169E-1,-2.484621257E-1
6.415190990E0,3.277959228E-1,2.790808380E-1,-1.586675793E-1
6.434000677E0,4.585172236E-1,2.018086612E-1,-2.759502530E-1
6.452810365E0,5.257104039E-1,1.114032716E-1,-4.475983381E-1
6.471620052E0,4.878378808E-1,-3.130592033E-2,-5.590779781E-1
6.490429740E0,4.209501147E-1,1.715717167E-1,-4.201101959E-1
6.509239427E0,3.143572807E-1,5.240305662E-1,-4.518742561E-1
6.528049063E0,8.467870206E-2,9.339091182E-1,-3.037438095E-1
6.546858750E0,-3.906368315E-1,2.428652287E0,-9.710944295E-1
6.565668438E0,-3.100049794E-1,1.579574704E0,-1.667460322E0
6.584478125E0,-4.859289825E-1,-3.352024257E-1,-1.414264083E0
6.603287813E0,-1.285069883E-1,4.608078897E-1,3.130592033E-2
6.622097500E0,7.124006003E-2,6.999546289E-1,7.924979329E-1
6.640907188E0,-1.763821393E-2,6.978166103E-1,6.465054750E-1
6.659716875E0,-1.566059589E-1,5.762580037E-1,2.153236605E-2
6.678526511E0,-5.428905040E-2,1.816506982E-1,-3.697153032E-1
6.697336198E0,3.855973482E-2,1.920351088E-1,-1.421747059E-1
6.716145886E0,-2.672456671E-3,1.205659807E-1,-6.642963737E-2
6.734955573E0,7.711946499E-3,-1.908897609E-2,-3.466558084E-2
6.753765261E0,2.206685767E-2,-4.504998401E-2,5.650337320E-3
6.772574948E0,5.879404955E-3,2.596100792E-3,-2.092151903E-2
6.791384636E0,6.872031372E-4,9.620844387E-3,-2.825168520E-2
6.810194323E0,3.436015919E-3,-3.512371797E-3,-1.206423342E-2
6.829004011E0,1.076618303E-2,-1.298050396E-2,2.672456764E-2
6.847813698E0,7.406522986E-3,-2.305948362E-2,-7.788302377E-3
6.866623386E0,1.908897655E-3,-2.000524849E-2,-1.450762246E-2
6.885433073E0,6.184828468E-3,-1.420219894E-2,1.328592747E-2
6.904242761E0,3.817795368E-4,-5.039489828E-3,-2.901524538E-3
6.923052448E0,1.603474026E-3,-2.901524538E-3,-1.374406274E-3
6.941862136E0,3.817795368E-4,8.399149403E-3,-1.068982761E-3
6.960671823E0,-1.145338640E-3,1.664558798E-2,-7.177455351E-3
6.979481511E0,-8.399150101E-4,2.672456764E-2,-6.566607859E-3
6.998291198E0,-1.450762269E-3,3.955236077E-2,-9.620844387E-3
7.017100886E0,-3.894151188E-3,3.863608837E-2,-1.420219894E-2
7.035910573E0,-6.337540224E-3,2.092151903E-2,-1.725643501E-2
7.054720261E0,-6.642963737E-3,1.511846948E-2,-1.725643501E-2
7.073529948E0,-5.421269219E-3,1.817270555E-2,-1.206423342E-2
7.092339636E0,-4.810422193E-3,2.061609551E-2,-6.261184346E-3
7.111149323E0,-4.199574701E-3,1.695101149E-2,-2.596100792E-3
7.129959011E0,-5.726693198E-3,1.328592747E-2,-4.734066315E-3
7.148768698E0,-6.642963737E-3,6.872031838E-3,-9.315420873E-3
7.167578386E0,-6.948387716E-3,2.596100792E-3,-1.267508045E-2
7.186388073E0,-8.475505747E-3,4.123218823E-3,-1.298050396E-2
7.205197761E0,-1.183516532E-2,8.093725890E-3,-1.695101149E-2
7.224007500E0,-1.458397787E-2,4.428642802E-3,-2.061609551E-2
7.242817188E0,-1.550024934E-2,-1.175880991E-2,-2.336490713E-2
7.261626875E0,-1.550024934E-2,-2.672456764E-2,-2.702999115E-2
7.280436563E0,-1.183516532E-2,-3.833066672E-2,-2.458660305E-2
7.299246250E0,-8.170082234E-3,-4.902049154E-2,-1.420219894E-2
7.318055938E0,-4.199574701E-3,-6.429167092E-2,-7.635590737E-4
7.336865625E0,1.603474026E-3,-6.795676053E-2,1.053711493E-2
7.355675313E0,4.046862945E-3,-5.054761097E-2,1.359135192E-2
7.374485052E0,5.268557463E-3,-2.916795574E-2,1.420219894E-2
7.393294740E0,6.184828468E-3,-8.399149403E-3,1.725643501E-2
7.412104427E0,4.963133950E-3,8.093725890E-3,1.298050396E-2
7.430914115E0,4.352286924E-3,1.114796288E-2,1.023169141E-2
7.449723802E0,1.298050396E-3,9.620844387E-3,3.512371797E-3
7.468533490E0,-2.367033157E-3,1.725643501E-2,-4.734066315E-3
7.487343229E0,-8.475505747E-3,2.367033064E-2,-1.175880991E-2
7.506152917E0,-1.214058883E-2,7.177455351E-3,-1.420219894E-2
7.524962604E0,-1.458397787E-2,-2.764083818E-2,-1.786728203E-2
7.543772292E0,-1.550024934E-2,-5.207473040E-2,-1.939439960E-2
7.562581979E0,-1.550024934E-2,-6.917845458E-2,-1.847812906E-2
7.581391719E0,-1.519482583E-2,-9.208522737E-2,-1.847812906E-2
7.600201406E0,-1.183516532E-2,-1.055238619E-1,-1.511846948E-2
7.619011094E0,-1.061347127E-2,-9.239064902E-2,-1.298050396E-2
7.637820781E0,-1.030804776E-2,-7.040014863E-2,-1.572931744E-2
7.656630521E0,-1.488940232E-2,-4.413371533E-2,-1.236965694E-2
7.675440208E0,-9.697199799E-3,-8.399149403E-3,-3.344388679E-2
7.694249896E0,-6.642963737E-3,2.886253223E-2,-2.825168520E-2
7.713059583E0,-5.115845706E-3,6.245913357E-2,-3.038965166E-2
7.731869323E0,3.436015919E-3,1.312558055E-1,-3.924693540E-2
7.750679011E0,1.351499557E-2,2.714452446E-1,-5.909947306E-2
7.769488698E0,-8.170082234E-3,3.151208162E-1,-9.941539168E-2
7.788298438E0,-4.756972939E-2,1.437781751E-1,-1.168245375E-1
7.807108125E0,-7.841751724E-2,-1.207950488E-1,-8.994726092E-2
7.825917813E0,-5.734328553E-2,-2.689255178E-1,-6.520794332E-2
7.844727500E0,-4.573718831E-2,-3.248180151E-1,-5.115845799E-2
7.863537240E0,-4.756972939E-2,-3.064926267E-1,-4.413371533E-2
7.882346927E0,-5.276193097E-2,-2.512109280E-1,-6.642963737E-2
7.901156667E0,-6.070294604E-2,-1.791309565E-1,-6.642963737E-2
7.919966354E0,-5.215108395E-2,-1.412584335E-1,-5.146388337E-2
7.938776042E0,-4.634803534E-2,-1.592784226E-1,-3.374931216E-2
7.957585781E0,-5.642701685E-2,-1.806580722E-1,-1.664558798E-2
7.976395469E0,-5.978667364E-2,-2.307475507E-1,4.581354442E-4
7.995205156E0,-5.337277800E-2,-2.903051674E-1,2.000524849E-2
8.014014896E0,-3.962871432E-2,-2.802261710E-1,3.802524135E-2
8.032824583E0,-3.474193811E-2,-2.341072112E-1,3.497100621E-2
8.051634271E0,-1.519482583E-2,-1.629435122E-1,1.267508045E-2
8.070444011E0,-1.275143679E-2,-1.217113137E-1,-1.572931744E-2
8.089253698E0,-3.474193811E-2,-1.577513069E-1,-2.061609551E-2
8.108063386E0,-2.252499200E-2,-1.623326540E-1,-9.009997360E-3
8.126873125E0,-2.832804248E-2,-1.284306347E-1,-2.000524849E-2
8.145682813E0,-8.780929260E-3,-5.726693198E-2,-3.741439432E-2
8.164492552E0,8.017370477E-3,-5.039489828E-3,-3.405473381E-2
8.183302240E0,1.656923257E-2,1.328592747E-2,-1.481304597E-2
8.202111979E0,3.581092134E-2,4.596625641E-2,7.482878864E-3
8.220921667E0,3.794888780E-2,6.093201414E-2,2.367033064E-2
8.239731406E0,3.764346242E-2,2.031067200E-2,3.649812192E-2
8.258541094E0,4.863871261E-2,-2.611372061E-2,5.238015205E-2
8.277350781E0,4.772244394E-2,-5.543438718E-2,5.726693198E-2
8.296160521E0,4.008685052E-2,-5.604523420E-2,5.787777901E-2
8.314970208E0,2.878617682E-2,-1.328592747E-2,6.826218218E-2
8.333779948E0,2.328855172E-2,1.939439960E-2,5.665608495E-2
8.352589636E0,2.970244735E-2,3.344388679E-2,4.169032723E-2
8.371399375E0,2.695363574E-2,1.847812906E-2,2.580829710E-2
8.390209063E0,2.145601064E-2,7.177455351E-3,2.122694254E-2
8.409018802E0,1.626380906E-2,5.955760833E-3,2.000524849E-2
8.427828490E0,9.849912487E-3,6.261184346E-3,9.926267900E-3
8.446638229E0,6.490251981E-3,-7.635590737E-4,9.009997360E-3
8.465447917E0,3.130592173E-3,-1.267508045E-2,1.908897609E-2
8.484257656E0,-1.450762269E-3,-2.916795574E-2,2.153236605E-2
8.503067344E0,-7.253811229E-3,-4.718795046E-2,1.847812906E-2
8.521877083E0,-8.780929260E-3,-5.329642445E-2,2.031067200E-2
8.540686771E0,-1.122431830E-2,-5.390727147E-2,3.283303976E-2
8.559496511E0,-2.099787444E-2,-6.429167092E-2,5.054761097E-2
8.578306198E0,-3.687990457E-2,-8.536590636E-2,6.856760383E-2
8.597115938E0,-6.711684167E-2,-1.064401343E-1,7.742489129E-2
8.615925677E0,-7.597412914E-2,-1.149920002E-1,7.681404054E-2
8.634735365E0,-4.512634128E-2,-1.501157135E-1,6.215370819E-2
8.653545104E0,-2.802261710E-2,-1.171299592E-1,4.352286831E-2
8.672354792E0,-1.244601328E-2,-7.192726433E-2,2.244863659E-2
8.691164531E0,-5.344913807E-4,-2.886253223E-2,6.872031838E-3
8.709974271E0,6.872031372E-4,9.926267900E-3,-4.581354442E-4
8.728783958E0,2.519744914E-3,2.519745007E-2,4.581354442E-4
8.747593698E0,7.101099472E-3,1.725643501E-2,5.955760833E-3
8.766403386E0,7.711946499E-3,1.053711493E-2,8.399149403E-3
8.785213125E0,4.963133950E-3,2.596100792E-3,4.123218823E-3
8.804022813E0,3.436015919E-3,-1.939439960E-2,-1.679830020E-3
8.822832552E0,4.963133950E-3,-4.474456236E-2,-1.374406274E-3
8.841642292E0,7.711946499E-3,-7.742489129E-2,4.123218823E-3
8.860451979E0,7.101099472E-3,-1.085781008E-1,1.175880991E-2
8.879261719E0,5.573981442E-3,-1.311794519E-1,1.695101149E-2
8.898071458E0,2.214321401E-3,-1.449235082E-1,1.298050396E-2
8.916881146E0,-8.399150101E-4,-1.696628332E-1,1.939439960E-2
8.935690886E0,-7.864658721E-3,-1.876828223E-1,5.024218559E-2
8.954500573E0,-2.405211143E-2,-1.864611208E-1,6.306997687E-2
8.973310313E0,-2.863346599E-2,-1.244601309E-1,7.253811508E-2
8.992120052E0,3.817795368E-4,-5.665608495E-2,8.108997345E-2
9.010929740E0,4.863871261E-2,-1.878355257E-2,8.506047726E-2
9.029739479E0,6.177192926E-2,-1.175880991E-2,8.383878320E-2
9.048549219E0,2.420482226E-2,3.344388679E-2,7.162184268E-2
9.067358906E0,-3.290939704E-2,1.651578248E-1,6.429167092E-2
9.086168646E0,-6.406260282E-2,2.360161096E-1,5.635065958E-2
9.104978386E0,-8.971819282E-2,2.589228749E-1,5.421269313E-2
9.123788073E0,-1.303395331E-1,2.912977934E-1,6.642963737E-2
9.142597813E0,-1.477486789E-1,2.992388010E-1,6.490252167E-2
9.161407552E0,-1.504974961E-1,2.699181437E-1,5.940489471E-2
9.180217240E0,-1.202605516E-1,2.216611952E-1,4.688252881E-2
9.199026979E0,-1.013242900E-1,1.895917207E-1,5.665608495E-2
9.217836719E0,-9.613208473E-2,1.621035933E-1,7.192726433E-2
9.236646458E0,-8.360971510E-2,8.536590636E-2,6.276455522E-2
9.255456146E0,-4.787515476E-2,1.634016447E-2,2.397575416E-2
9.274265886E0,-1.488940232E-2,-7.177455351E-3,-1.267508045E-2
9.293075625E0,-9.086352773E-3,-3.512371797E-3,-2.611372061E-2
9.311885313E0,-1.000262424E-2,-1.450762246E-2,-3.497100621E-2
9.330695052E0,-4.199574701E-3,-2.061609551E-2,-5.207473040E-2
9.349504792E0,1.076618303E-2,-2.855710872E-2,-5.940489471E-2
9.368314531E0,1.382041909E-2,-3.527642787E-2,-4.993676394E-2
9.387124219E0,1.687465608E-2,-4.810422286E-2,-1.542389300E-2
9.405933958E0,1.718007959E-2,-7.131642103E-2,1.725643501E-2
9.424743698E0,7.101099472E-3,-6.368082762E-2,2.214321308E-2
9.443553438E0,3.436015919E-3,-6.566607859E-3,1.068982761E-3
9.462363125E0,1.382041909E-2,5.543438718E-2,-1.542389300E-2
9.481172865E0,1.687465608E-2,9.086353332E-2,-4.123218823E-3
9.499982604E0,7.101099472E-3,1.056002229E-1,-1.664558798E-2
9.518792344E0,5.879404955E-3,1.025459841E-1,-4.352286831E-2
9.537602031E0,4.657710437E-3,1.141520813E-1,-5.390727147E-2
9.556411771E0,-1.145338640E-3,1.373642832E-1,-4.657710344E-2
9.575221511E0,5.879404955E-3,1.471378356E-1,-5.146388337E-2
9.594031250E0,2.214321401E-3,8.994726092E-2,-7.437065244E-2
9.612840990E0,5.268557463E-3,-1.756185852E-2,-6.337540597E-2
9.631650677E0,1.870719716E-2,1.603474095E-2,4.382828996E-2
9.650460417E0,1.076618303E-2,2.214321308E-2,2.031067200E-2
9.669270156E0,-6.642963737E-3,-1.052184403E-1,-7.177455351E-3
9.688079896E0,-4.810422193E-3,-2.783936262E-1,1.603474095E-2
9.706889583E0,8.933641016E-3,-3.718532622E-1,-1.985253533E-3
9.725699323E0,2.603736520E-2,-3.168770075E-1,-1.908897609E-2
9.744509063E0,4.741701856E-2,-1.843231618E-1,2.901524538E-3
9.763318802E0,6.421531737E-2,-9.055810422E-2,2.336490713E-2
9.782128542E0,6.696412712E-2,-6.734590977E-2,5.360184610E-2
9.800938281E0,6.604786217E-2,-7.528692484E-2,7.864658535E-2
9.819747969E0,8.467870206E-2,-8.506047726E-2,8.261708915E-2
9.838557708E0,8.162446320E-2,-8.658760041E-2,6.856760383E-2
9.857367448E0,6.543701142E-2,-3.436015919E-2,8.597674966E-2
9.876177188E0,5.260922015E-2,3.405473381E-2,1.336228400E-1
9.894986927E0,3.214583546E-2,7.131642103E-2,1.772984117E-1
9.913796667E0,2.145601064E-2,7.589777559E-2,1.959292591E-1
9.932606354E0,2.298312820E-2,5.268557742E-2,1.724116355E-1
9.951416094E0,1.748550311E-2,1.328592747E-2,1.467560530E-1
9.970225833E0,3.741439432E-3,-4.627167806E-2,1.220167428E-1
9.989035573E0,1.015533600E-2,-1.241547018E-1,7.742489129E-2
1.000784531E1,2.970244735E-2,-1.672194302E-1,1.634016447E-2
1.002665505E1,4.650074616E-2,-1.259872466E-1,-1.206423342E-2
1.004546479E1,4.375193641E-2,-3.741439432E-2,1.023169141E-2
1.006427448E1,4.527905211E-2,-3.527642787E-2,2.672456764E-2
1.008308422E1,5.749600008E-2,-1.589729935E-1,3.512371797E-3
1.010189396E1,7.887565345E-2,-3.141281903E-1,-5.757235363E-2
1.012070370E1,6.116108224E-2,-3.565820754E-1,-1.269035190E-1
1.013951344E1,-1.122431830E-2,-3.144336343E-1,-1.433963925E-1
1.015832318E1,-5.887040496E-2,-3.217637837E-1,-1.018587798E-1
1.017713292E1,-9.796462953E-2,-3.040492237E-1,-2.397575416E-2
1.019594260E1,-1.529408842E-1,-1.916533262E-1,7.620319724E-2
1.021475234E1,-1.969982386E-1,-6.154286116E-2,2.075353563E-1
1.023356208E1,-2.073826492E-1,4.963133857E-2,3.107685447E-1
1.025237182E1,-1.544679999E-1,9.208522737E-2,3.080197275E-1
1.027118156E1,-6.375718117E-2,5.848862603E-2,2.325800955E-1
1.028999130E1,1.473669056E-2,1.817270555E-2,1.534753740E-1
1.030880104E1,7.459972054E-2,4.718795046E-2,9.910997003E-2
1.032761078E1,8.284615725E-2,1.092653051E-1,2.641914412E-2
1.034642052E1,1.094180122E-1,1.306449622E-1,-6.581879407E-2
1.036523021E1,1.204132661E-1,1.553842723E-1,-1.495048702E-1
1.038403995E1,7.459972054E-2,2.476222068E-1,-1.928750277E-1
1.040284969E1,5.444176123E-2,2.815242410E-1,-2.081461996E-1
1.042165943E1,2.145601064E-2,2.079171389E-1,-2.142546773E-1
1.044046917E1,1.908897655E-3,8.780929446E-2,-1.223221645E-1
1.045927891E1,-1.672194339E-2,-1.572931744E-2,-5.955760833E-3
1.047808865E1,-2.069245093E-2,-7.956285775E-2,4.566083103E-2
1.049689839E1,-3.443651274E-2,-1.229330078E-1,9.208522737E-2
1.051570813E1,-2.863346599E-2,-1.788255423E-1,1.265980899E-1
1.053451787E1,-1.275143679E-2,-1.928750277E-1,1.421747059E-1
1.055332760E1,4.046862945E-3,-1.785201132E-1,1.443126649E-1
1.057213729E1,2.481566928E-2,-1.617218107E-1,1.101052165E-1
1.059094703E1,3.000787087E-2,-1.507265568E-1,5.787777901E-2
1.060975677E1,1.809635013E-2,-1.250709742E-1,1.389677543E-2
1.062856651E1,1.290414855E-2,-8.444963396E-2,-9.009997360E-3
1.064737625E1,9.849912487E-3,-4.077405483E-2,-1.756185852E-2
1.066618599E1,-8.170082234E-3,-4.123218823E-3,-2.305948362E-2
1.068499573E1,-2.374668792E-2,3.817795310E-3,-1.603474095E-2
1.070380547E1,-1.916533336E-2,-2.596100792E-3,5.039489828E-3
1.072261521E1,-6.642963737E-3,5.955760833E-3,2.702999115E-2
1.074142495E1,-4.199574701E-3,2.000524849E-2,4.260659590E-2
1.076023469E1,-1.756185899E-3,1.634016447E-2,4.413371533E-2
1.077904443E1,7.101099472E-3,5.650337320E-3,3.710897267E-2
1.079785417E1,1.229330152E-2,8.399149403E-3,1.695101149E-2
1.081666391E1,1.320957206E-2,8.704573847E-3,1.328592747E-2
1.083547365E1,1.137703005E-2,6.872031838E-3,2.000524849E-2
1.085428339E1,7.635590737E-5,1.236965694E-2,5.955760833E-3
1.087309307E1,-9.086352773E-3,4.581354442E-4,-8.704573847E-3
1.089190281E1,-8.780929260E-3,-1.572931744E-2,-8.399149403E-3
1.091071255E1,-1.244601328E-2,-1.939439960E-2,-7.788302377E-3
1.092952229E1,-1.824906096E-2,-1.786728203E-2,-1.450762246E-2
1.094833203E1,-1.763821393E-2,-1.817270555E-2,-1.542389300E-2
1.096714177E1,-2.313583903E-2,-1.084253844E-2,-1.878355257E-2
1.098595151E1,-3.413109109E-2,-2.641914412E-2,-1.817270555E-2
1.100476125E1,-2.588465251E-2,-5.176930502E-2,-1.267508045E-2
1.102357099E1,1.603474026E-3,-6.337540597E-2,1.389677543E-2
1.104238073E1,2.573194169E-2,-3.649812192E-2,4.352286831E-2
1.106119047E1,3.397838026E-2,2.367033064E-2,5.299099907E-2
1.108000021E1,3.031329438E-2,6.306997687E-2,4.138490185E-2
1.109880995E1,3.153498843E-2,7.589777559E-2,2.886253223E-2
1.111761969E1,2.786990628E-2,8.872556686E-2,1.847812906E-2
1.113642943E1,1.901262067E-2,9.300149232E-2,1.389677543E-2
1.115523917E1,1.198787708E-2,7.773031294E-2,1.450762246E-2
1.117404891E1,4.046862945E-3,5.726693198E-2,1.389677543E-2
1.119285865E1,4.657710437E-3,1.359135192E-2,1.664558798E-2
1.121166839E1,1.015533600E-2,-2.275406010E-2,1.756185852E-2
1.123047813E1,1.046075951E-2,-3.436015919E-2,2.122694254E-2
1.124928787E1,1.595838554E-2,-4.718795046E-2,2.886253223E-2
1.126809760E1,2.145601064E-2,-5.238015205E-2,3.924693540E-2
1.128690734E1,2.603736520E-2,-4.871506989E-2,4.871506989E-2
1.130571708E1,3.061871976E-2,-4.107947648E-2,5.115845799E-2
1.132452677E1,3.275668249E-2,-3.252761811E-2,4.688252881E-2
1.134333651E1,2.328855172E-2,-2.183778957E-2,3.252761811E-2
1.136214630E1,1.107160654E-2,-1.572931744E-2,1.175880991E-2
1.138095599E1,7.101099472E-3,-1.359135192E-2,-3.817795310E-3
1.139976573E1,9.544488043E-3,-9.315420873E-3,-4.734066315E-3
1.141857547E1,1.229330152E-2,1.679830020E-3,-3.512371797E-3
1.143738521E1,1.351499557E-2,1.542389300E-2,-5.039489828E-3
1.145619495E1,1.320957206E-2,2.977880463E-2,-9.926267900E-3
1.147500469E1,1.443126611E-2,4.230117425E-2,-1.847812906E-2
1.149381443E1,1.931804419E-2,5.207473040E-2,-2.092151903E-2
1.151262417E1,2.298312820E-2,6.612421572E-2,-2.458660305E-2
1.153143391E1,1.870719716E-2,8.536590636E-2,-2.916795574E-2
1.155024365E1,7.101099472E-3,9.055810422E-2,-3.161134571E-2
1.156905339E1,-8.399150101E-4,7.773031294E-2,-3.130592033E-2
1.158786312E1,-3.894151188E-3,5.421269313E-2,-2.580829710E-2
1.160667286E1,-2.061609412E-3,2.702999115E-2,-1.236965694E-2
1.162548260E1,1.298050396E-3,1.527118147E-4,1.374406274E-3
1.164429234E1,9.926267667E-4,-1.725643501E-2,6.566607859E-3
1.166310208E1,2.825168660E-3,-2.977880463E-2,7.482878864E-3
1.168191182E1,7.101099472E-3,-3.374931216E-2,6.566607859E-3
1.170072156E1,1.015533600E-2,-2.825168520E-2,4.428642802E-3
1.171953130E1,8.017370477E-3,-1.695101149E-2,1.374406274E-3
1.173834104E1,5.879404955E-3,-6.261184346E-3,4.581354442E-4
1.175715078E1,5.879404955E-3,3.512371797E-3,1.068982761E-3
1.177596052E1,5.268557463E-3,1.236965694E-2,7.635590737E-4
1.179477026E1,4.352286924E-3,1.664558798E-2,-1.527118147E-4
1.181358000E1,5.268557463E-3,1.695101149E-2,-2.901524538E-3
1.183238974E1,6.184828468E-3,1.664558798E-2,-4.123218823E-3
1.185119948E1,5.573981442E-3,1.603474095E-2,-4.734066315E-3
1.187000922E1,4.657710437E-3,1.023169141E-2,-3.817795310E-3
1.188881896E1,5.573981442E-3,1.068982761E-3,-2.290677279E-3
1.190762870E1,4.657710437E-3,-1.985253533E-3,4.581354442E-4
1.192643844E1,1.908897655E-3,-1.068982761E-3,2.290677279E-3
1.194524818E1,6.872031372E-4,-1.527118147E-4,3.817795310E-3
1.196405792E1,-2.061609412E-3,7.635590737E-4,5.039489828E-3
1.198286766E1,-5.726693198E-3,-1.679830020E-3,5.955760833E-3
1.200167740E1,-5.115845706E-3,-8.399149403E-3,8.704573847E-3
1.202048714E1,-2.061609412E-3,-1.420219894E-2,1.298050396E-2
1.203929688E1,-1.756185899E-3,-1.175880991E-2,1.695101149E-2
1.205810662E1,-2.290677221E-4,-1.145338640E-2,1.572931744E-2
1.207691635E1,1.603474026E-3,-1.572931744E-2,1.145338640E-2
1.209572609E1,4.046862945E-3,-1.634016447E-2,5.955760833E-3
1.211453583E1,6.490251981E-3,-1.359135192E-2,-4.581354442E-4
1.213334557E1,6.490251981E-3,-6.566607859E-3,-1.679830020E-3
1.215215531E1,7.101099472E-3,1.374406274E-3,-2.290677279E-3
1.217096505E1,7.711946499E-3,1.572931744E-2,3.817795310E-3
1.218977479E1,5.268557463E-3,1.145338640E-2,5.344913341E-3
1.220858453E1,9.926267667E-4,1.374406274E-3,1.420219894E-2
1.222739427E1,1.908897655E-3,-2.550287358E-2,2.031067200E-2
1.224620401E1,1.908897655E-3,-5.482354015E-2,2.825168520E-2
1.226501375E1,5.573981442E-3,-8.353336155E-2,4.596625641E-2
1.228382349E1,7.406522986E-3,-1.122431830E-1,5.512896553E-2
1.230263323E1,9.544488043E-3,-1.259872466E-1,7.101099193E-2
1.232144297E1,1.901262067E-2,-1.443126649E-1,7.895200700E-2
1.234025271E1,2.848075330E-2,-1.375933439E-1,6.520794332E-2
1.235906245E1,2.512109280E-2,-9.880454093E-2,5.757235363E-2
1.237787219E1,1.382041909E-2,-6.795676053E-2,5.635065958E-2
1.239668193E1,1.382041909E-2,-6.520794332E-2,5.543438718E-2
1.241549167E1,2.420482226E-2,-6.795676053E-2,5.268557742E-2
1.243430141E1,2.848075330E-2,-6.368082762E-2,4.810422286E-2
1.245311115E1,1.595838554E-2,-3.497100621E-2,4.138490185E-2
1.247192089E1,5.573981442E-3,-1.023169141E-2,3.038965166E-2
1.249073063E1,6.872031372E-4,-1.084253844E-2,1.725643501E-2
1.250954037E1,1.298050396E-3,-2.275406010E-2,8.093725890E-3
1.252835010E1,3.741439432E-3,-2.183778957E-2,5.955760833E-3
1.254715984E1,2.519744914E-3,-2.290677279E-3,2.901524538E-3
1.256596958E1,-3.894151188E-3,2.183778957E-2,-1.679830020E-3
1.258477932E1,-5.421269219E-3,3.038965166E-2,-7.788302377E-3
1.260358906E1,-2.061609412E-3,3.252761811E-2,-1.236965694E-2
1.262239880E1,-5.344913807E-4,4.046862945E-2,-1.572931744E-2
1.264120854E1,3.817795368E-4,4.871506989E-2,-2.244863659E-2
1.266001828E1,1.298050396E-3,5.390727147E-2,-2.305948362E-2
1.267882802E1,3.817795368E-4,6.337540597E-2,-2.458660305E-2
1.269763776E1,-9.086352773E-3,8.994726092E-2,-2.977880463E-2
1.271644750E1,-1.672194339E-2,1.083490327E-1,-3.680354729E-2
1.273525724E1,-1.733279042E-2,1.037676781E-1,-3.741439432E-2
1.275406698E1,-1.641651988E-2,8.322793990E-2,-2.916795574E-2
1.277287672E1,-1.611109637E-2,6.001574174E-2,-2.183778957E-2
1.279168646E1,-1.030804776E-2,3.405473381E-2,-9.926267900E-3
1.281049620E1,-3.283303929E-3,8.093725890E-3,-3.512371797E-3
1.282930594E1,1.908897655E-3,-9.315420873E-3,-2.901524538E-3
1.284811568E1,3.741439432E-3,-1.175880991E-2,-7.788302377E-3
1.286692542E1,3.741439432E-3,-4.734066315E-3,-1.450762246E-2
1.288573516E1,4.352286924E-3,4.123218823E-3,-1.847812906E-2
1.290454490E1,5.879404955E-3,1.236965694E-2,-1.817270555E-2
1.292335464E1,6.184828468E-3,2.031067200E-2,-1.298050396E-2
1.294216438E1,6.184828468E-3,2.275406010E-2,-6.566607859E-3
1.296097412E1,5.268557463E-3,2.031067200E-2,-1.374406274E-3
1.297978385E1,4.046862945E-3,1.267508045E-2,7.635590737E-4
1.299859359E1,3.436015919E-3,2.596100792E-3,4.581354442E-4
1.301740333E1,2.519744914E-3,-6.566607859E-3,1.527118147E-4
1.303621313E1,2.214321401E-3,-1.053711493E-2,-1.068982761E-3
1.305502281E1,1.603474026E-3,-9.926267900E-3,-7.635590737E-4
1.307383255E1,9.926267667E-4,-4.734066315E-3,-7.635590737E-4
1.309264229E1,3.817795368E-4,1.985253533E-3,-1.374406274E-3
1.311145208E1,3.817795368E-4,6.872031838E-3,-2.290677279E-3
1.313026177E1,3.817795368E-4,9.315420873E-3,-2.901524538E-3
1.314907156E1,7.635590737E-5,9.315420873E-3,-3.512371797E-3
1.316788130E1,9.926267667E-4,5.344913341E-3,-3.206948051E-3
1.318669104E1,1.908897655E-3,3.206948051E-3,-7.635590737E-4
1.320550078E1,1.908897655E-3,4.428642802E-3,4.581354442E-4
1.322431052E1,1.298050396E-3,2.596100792E-3,1.068982761E-3
1.324312026E1,1.603474026E-3,7.635590737E-4,4.581354442E-4
1.326193000E1,3.817795368E-4,4.581354442E-4,-1.527118147E-4
1.328073974E1,7.635590737E-5,-4.581354442E-4,-1.527118147E-4
1.329954948E1,9.926267667E-4,-1.985253533E-3,1.374406274E-3
1.331835922E1,9.926267667E-4,-1.985253533E-3,1.985253533E-3
1.333716896E1,-2.290677221E-4,-7.635590737E-4,1.679830020E-3
1.335597870E1,-2.290677221E-4,-2.596100792E-3,1.527118147E-4
1.337478844E1,1.908897655E-3,-2.290677279E-3,7.635590737E-4
1.339359818E1,1.908897655E-3,3.512371797E-3,2.596100792E-3
1.341240792E1,2.519744914E-3,9.009997360E-3,2.596100792E-3
1.343121766E1,1.603474026E-3,6.872031838E-3,4.123218823E-3
1.345002740E1,3.130592173E-3,4.428642802E-3,4.734066315E-3
1.346883714E1,1.298050396E-3,6.261184346E-3,4.428642802E-3
1.348764688E1,-5.344913807E-4,7.482878864E-3,4.734066315E-3
1.350645662E1,3.817795368E-4,4.734066315E-3,4.428642802E-3
1.352526635E1,-2.290677221E-4,1.068982761E-3,3.512371797E-3
1.354407609E1,-1.145338640E-3,-1.374406274E-3,1.679830020E-3
1.356288583E1,7.635590737E-5,-3.817795310E-3,7.635590737E-4
1.358169557E1,1.298050396E-3,-3.817795310E-3,1.068982761E-3
1.360050531E1,1.298050396E-3,-2.290677279E-3,1.679830020E-3
1.361931505E1,6.872031372E-4,7.635590737E-4,1.985253533E-3
1.363812479E1,7.635590737E-5,1.068982761E-3,1.068982761E-3
1.365693453E1,9.926267667E-4,1.068982761E-3,1.985253533E-3
1.367574427E1,1.298050396E-3,4.734066315E-3,2.596100792E-3
1.369455401E1,6.872031372E-4,5.344913341E-3,2.290677279E-3
1.371336375E1,9.926267667E-4,3.206948051E-3,1.985253533E-3
1.373217349E1,6.872031372E-4,1.374406274E-3,2.596100792E-3
1.375098323E1,6.872031372E-4,-1.527118147E-4,3.817795310E-3
1.376979297E1,3.817795368E-4,-1.068982761E-3,3.206948051E-3
1.378860271E1,7.635590737E-5,-4.581354442E-4,3.206948051E-3
1.380741245E1,3.817795368E-4,4.581354442E-4,3.817795310E-3
1.382622219E1,6.872031372E-4,2.290677279E-3,3.206948051E-3
1.384503193E1,-2.290677221E-4,3.512371797E-3,2.290677279E-3
1.386384167E1,3.817795368E-4,3.817795310E-3,1.374406274E-3
1.388265141E1,6.872031372E-4,3.206948051E-3,1.068982761E-3
1.390146115E1,6.872031372E-4,2.596100792E-3,7.635590737E-4
1.392027094E1,-5.344913807E-4,1.068982761E-3,1.068982761E-3
1.393908062E1,9.926267667E-4,-1.374406274E-3,2.901524538E-3
1.395789036E1,6.872031372E-4,-1.679830020E-3,3.817795310E-3
1.397670010E1,1.298050396E-3,-1.068982761E-3,3.206948051E-3
1.399550984E1,9.926267667E-4,-4.581354442E-4,2.596100792E-3
1.401431964E1,3.817795368E-4,1.679830020E-3,1.068982761E-3
1.403312938E1,-8.399150101E-4,3.512371797E-3,-1.068982761E-3
1.405193912E1,-1.450762269E-3,1.679830020E-3,4.581354442E-4
1.407074885E1,9.926267667E-4,-1.374406274E-3,2.596100792E-3
1.408955859E1,2.519744914E-3,-4.581354442E-4,2.901524538E-3
1.410836833E1,9.926267667E-4,3.206948051E-3,1.527118147E-4
1.412717807E1,6.872031372E-4,1.985253533E-3,-2.290677279E-3
1.414598781E1,1.908897655E-3,4.581354442E-4,-2.596100792E-3
1.416479755E1,1.298050396E-3,4.428642802E-3,-1.374406274E-3
1.418360729E1,3.817795368E-4,4.123218823E-3,1.527118147E-4
1.420241703E1,9.926267667E-4,1.527118147E-4,1.985253533E-3
1.422122677E1,2.519744914E-3,1.068982761E-3,2.290677279E-3
1.424003651E1,7.635590737E-5,5.650337320E-3,2.596100792E-3
1.425884625E1,-5.344913807E-4,6.566607859E-3,2.290677279E-3
1.427765599E1,-2.290677221E-4,1.374406274E-3,1.068982761E-3
1.429646573E1,3.817795368E-4,-2.901524538E-3,-1.527118147E-4
1.431527547E1,6.872031372E-4,-1.679830020E-3,-7.635590737E-4
1.433408521E1,1.298050396E-3,-1.527118147E-4,-1.068982761E-3
1.435289495E1,1.908897655E-3,1.527118147E-4,-4.581354442E-4
1.437170469E1,9.926267667E-4,1.985253533E-3,-1.527118147E-4
1.439051443E1,-2.290677221E-4,1.985253533E-3,-7.635590737E-4
1.440932417E1,-2.290677221E-4,1.068982761E-3,-4.581354442E-4
1.442813391E1,9.926267667E-4,1.985253533E-3,-1.527118147E-4
1.444694365E1,-2.290677221E-4,4.123218823E-3,1.527118147E-4
1.446575339E1,-2.290677221E-4,2.290677279E-3,1.527118147E-4
1.448456313E1,-2.290677221E-4,-1.679830020E-3,7.635590737E-4
1.450337287E1,7.635590737E-5,-2.596100792E-3,1.527118147E-4
1.452218260E1,7.635590737E-5,-2.901524538E-3,-1.527118147E-4
1.454099234E1,7.635590737E-5,-1.679830020E-3,-1.527118147E-4
1.455980208E1,6.872031372E-4,1.527118147E-4,4.581354442E-4
1.457861182E1,9.926267667E-4,1.985253533E-3,-4.581354442E-4
1.459742156E1,6.872031372E-4,2.596100792E-3,4.581354442E-4
1.461623135E1,6.872031372E-4,4.428642802E-3,1.374406274E-3
1.463504104E1,3.817795368E-4,3.512371797E-3,1.374406274E-3
1.465385083E1,3.817795368E-4,1.985253533E-3,1.527118147E-4
1.467266057E1,7.635590737E-5,4.581354442E-4,-1.527118147E-4
1.469147031E1,3.817795368E-4,-1.679830020E-3,4.581354442E-4
1.471028005E1,9.926267667E-4,-2.901524538E-3,4.581354442E-4
1.472908979E1,9.926267667E-4,-2.901524538E-3,7.635590737E-4
1.474789953E1,9.926267667E-4,-1.679830020E-3,7.635590737E-4
1.476670927E1,9.926267667E-4,-1.527118147E-4,1.068982761E-3
1.478551901E1,6.872031372E-4,1.679830020E-3,1.527118147E-4
1.480432875E1,-2.290677221E-4,1.679830020E-3,-1.374406274E-3
1.482313849E1,3.817795368E-4,4.581354442E-4,4.581354442E-4
1.484194823E1,9.926267667E-4,-7.635590737E-4,3.512371797E-3
1.486075797E1,1.298050396E-3,-1.527118147E-4,3.817795310E-3
1.487956771E1,-5.344913807E-4,-1.374406274E-3,2.290677279E-3
1.489837745E1,1.298050396E-3,-4.123218823E-3,1.527118147E-4
1.491718719E1,2.214321401E-3,-7.635590737E-4,-4.581354442E-4
1.493599693E1,6.872031372E-4,4.734066315E-3,-7.635590737E-4
1.495480667E1,-2.290677221E-4,3.817795310E-3,4.581354442E-4
1.497361641E1,2.214321401E-3,1.068982761E-3,2.596100792E-3
1.499242615E1,2.825168660E-3,2.901524538E-3,3.817795310E-3
1.501123589E1,6.872031372E-4,5.955760833E-3,4.428642802E-3
1.503004563E1,9.926267667E-4,3.512371797E-3,3.817795310E-3
1.504885537E1,7.635590737E-5,-1.374406274E-3,1.985253533E-3
1.506766510E1,7.635590737E-5,-2.596100792E-3,1.068982761E-3
1.508647484E1,3.817795368E-4,-2.290677279E-3,4.581354442E-4
1.510528458E1,3.817795368E-4,-7.635590737E-4,-1.068982761E-3
1.512409432E1,6.872031372E-4,-7.635590737E-4,1.527118147E-4
1.514290406E1,6.872031372E-4,1.068982761E-3,4.581354442E-4
1.516171380E1,3.817795368E-4,1.679830020E-3,7.635590737E-4
1.518052354E1,6.872031372E-4,1.068982761E-3,-4.581354442E-4
1.519933328E1,1.298050396E-3,1.068982761E-3,1.527118147E-4
1.521814302E1,6.872031372E-4,3.206948051E-3,1.527118147E-4
1.523695276E1,7.635590737E-5,1.985253533E-3,4.581354442E-4
1.525576250E1,6.872031372E-4,-1.374406274E-3,1.374406274E-3
1.527457224E1,3.817795368E-4,-2.901524538E-3,1.374406274E-3
1.529338198E1,3.817795368E-4,-3.512371797E-3,1.374406274E-3
1.531219172E1,3.817795368E-4,-2.290677279E-3,1.679830020E-3
1.533100146E1,7.635590737E-5,4.581354442E-4,7.635590737E-4
1.534981120E1,6.872031372E-4,1.679830020E-3,1.527118147E-4
1.536862094E1,6.872031372E-4,1.985253533E-3,1.527118147E-4
1.538743068E1,7.635590737E-5,3.817795310E-3,7.635590737E-4
1.540624042E1,-2.290677221E-4,1.985253533E-3,4.581354442E-4
1.542505016E1,-2.290677221E-4,-4.581354442E-4,1.527118147E-4
1.544385990E1,-2.290677221E-4,-1.985253533E-3,1.527118147E-4
1.546266964E1,7.635590737E-5,-1.985253533E-3,7.635590737E-4
1.548147943E1,3.817795368E-4,-2.290677279E-3,1.068982761E-3
1.550028912E1,7.635590737E-5,-1.374406274E-3,7.635590737E-4
1.551909885E1,-2.290677221E-4,-7.635590737E-4,1.068982761E-3
1.553790859E1,3.817795368E-4,4.581354442E-4,1.068982761E-3
1.555671833E1,6.872031372E-4,7.635590737E-4,1.985253533E-3
1.557552807E1,6.872031372E-4,1.374406274E-3,1.374406274E-3
1.559433787E1,3.817795368E-4,1.527118147E-4,1.068982761E-3
1.561314755E1,-2.290677221E-4,-1.527118147E-4,4.581354442E-4
1.563195729E1,7.635590737E-5,-4.581354442E-4,1.527118147E-4
1.565076708E1,7.635590737E-5,-4.581354442E-4,1.374406274E-3
1.566957677E1,1.298050396E-3,-1.374406274E-3,3.512371797E-3
1.568838656E1,6.872031372E-4,1.068982761E-3,3.512371797E-3
1.570719630E1,-1.145338640E-3,1.527118147E-4,1.679830020E-3
1.572600599E1,1.603474026E-3,-3.817795310E-3,7.635590737E-4
1.574481578E1,1.908897655E-3,-1.527118147E-4,4.581354442E-4
1.576362552E1,9.926267667E-4,6.261184346E-3,7.635590737E-4
1.578243526E1,7.635590737E-5,4.734066315E-3,1.068982761E-3
1.580124500E1,1.603474026E-3,1.985253533E-3,2.901524538E-3
1.582005474E1,1.603474026E-3,2.596100792E-3,2.596100792E-3
1.583886448E1,-1.756185899E-3,5.955760833E-3,2.901524538E-3
1.585767417E1,-2.290677221E-4,3.206948051E-3,3.206948051E-3
1.587648391E1,-2.290677221E-4,-4.581354442E-4,3.512371797E-3
1.589529370E1,-5.344913807E-4,-1.068982761E-3,2.901524538E-3
1.591410344E1,7.635590737E-5,-1.068982761E-3,1.679830020E-3
1.593291318E1,7.635590737E-5,-4.581354442E-4,1.679830020E-3
1.595172292E1,7.635590737E-5,-1.985253533E-3,1.068982761E-3
1.597053260E1,7.635590737E-5,-1.068982761E-3,1.068982761E-3
1.598934240E1,-1.450762269E-3,4.581354442E-4,7.635590737E-4
1.600815214E1,-8.399150101E-4,-7.635590737E-4,7.635590737E-4
1.602696182E1,6.872031372E-4,-1.527118147E-4,7.635590737E-4
1.604577162E1,9.926267667E-4,1.985253533E-3,1.374406274E-3
1.606458135E1,7.635590737E-5,1.985253533E-3,1.374406274E-3
1.608339104E1,-2.290677221E-4,-7.635590737E-4,1.985253533E-3
1.610220083E1,3.817795368E-4,-3.512371797E-3,2.596100792E-3
1.612101052E1,6.872031372E-4,-2.596100792E-3,2.596100792E-3
1.613982026E1,3.817795368E-4,-1.374406274E-3,2.901524538E-3
1.615863000E1,3.817795368E-4,1.527118147E-4,2.901524538E-3
1.617743974E1,-2.290677221E-4,1.985253533E-3,1.985253533E-3
1.619624948E1,-2.290677221E-4,3.512371797E-3,1.068982761E-3
1.621505922E1,6.872031372E-4,2.901524538E-3,1.374406274E-3
1.623386896E1,7.635590737E-5,2.596100792E-3,1.985253533E-3
1.625267870E1,3.817795368E-4,1.527118147E-4,1.374406274E-3
1.627148844E1,7.635590737E-5,-1.068982761E-3,2.290677279E-3
1.629029818E1,-5.344913807E-4,-1.985253533E-3,2.596100792E-3
1.630910792E1,6.872031372E-4,-2.290677279E-3,2.901524538E-3
1.632791766E1,7.635590737E-5,-1.679830020E-3,2.290677279E-3
1.634672740E1,-2.290677221E-4,-4.581354442E-4,1.374406274E-3
1.636553714E1,-5.344913807E-4,-4.581354442E-4,1.985253533E-3
1.638434688E1,-2.290677221E-4,1.527118147E-4,2.596100792E-3
1.640315662E1,6.872031372E-4,7.635590737E-4,2.290677279E-3
1.642196635E1,6.872031372E-4,1.068982761E-3,2.596100792E-3
1.644077609E1,7.635590737E-5,-4.581354442E-4,1.985253533E-3
1.645958583E1,-5.344913807E-4,7.635590737E-4,1.679830020E-3
1.647839557E1,-2.290677221E-4,1.527118147E-4,1.985253533E-3
1.649720531E1,7.635590737E-5,-4.581354442E-4,2.290677279E-3
1.651601505E1,6.872031372E-4,-1.985253533E-3,3.512371797E-3
1.653482479E1,3.817795368E-4,-7.635590737E-4,3.817795310E-3
1.655363453E1,6.872031372E-4,4.581354442E-4,2.901524538E-3
1.657244427E1,6.872031372E-4,2.290677279E-3,1.374406274E-3
1.659125401E1,-8.399150101E-4,2.901524538E-3,4.581354442E-4
1.661006375E1,-2.061609412E-3,1.679830020E-3,1.679830020E-3
1.662887349E1,3.817795368E-4,-7.635590737E-4,4.734066315E-3
1.664768323E1,2.519744914E-3,4.581354442E-4,5.039489828E-3
1.666649297E1,3.817795368E-4,5.344913341E-3,2.290677279E-3
1.668530271E1,-2.290677221E-4,4.428642802E-3,-1.068982761E-3
1.670411245E1,1.603474026E-3,2.596100792E-3,-7.635590737E-4
1.672292219E1,6.872031372E-4,6.261184346E-3,1.068982761E-3
1.674173193E1,3.817795368E-4,6.566607859E-3,1.679830020E-3
1.676054162E1,3.817795368E-4,2.596100792E-3,3.817795310E-3
1.677935141E1,1.603474026E-3,2.596100792E-3,4.123218823E-3
1.679816109E1,-8.399150101E-4,6.566607859E-3,3.512371797E-3
1.681697083E1,-1.756185899E-3,7.788302377E-3,2.290677279E-3
1.683578057E1,-5.344913807E-4,7.635590737E-4,4.581354442E-4
1.685459031E1,-8.399150101E-4,-2.901524538E-3,-1.068982761E-3
1.687340005E1,9.926267667E-4,-2.901524538E-3,-2.901524538E-3
1.689220979E1,1.298050396E-3,-7.635590737E-4,-1.985253533E-3
1.691101953E1,1.298050396E-3,-4.581354442E-4,-1.068982761E-3
1.692982927E1,1.298050396E-3,1.679830020E-3,4.581354442E-4
1.694863901E1,3.817795368E-4,2.290677279E-3,1.527118147E-4
1.696744875E1,6.872031372E-4,4.581354442E-4,-1.527118147E-4
1.698625849E1,9.926267667E-4,4.581354442E-4,4.581354442E-4
1.700506823E1,3.817795368E-4,3.206948051E-3,1.527118147E-4
1.702387797E1,-5.344913807E-4,1.985253533E-3,-1.527118147E-4
1.704268771E1,-2.290677221E-4,-1.679830020E-3,-4.581354442E-4
1.706149745E1,3.817795368E-4,-5.344913341E-3,-4.581354442E-4
1.708030719E1,6.872031372E-4,-4.123218823E-3,1.527118147E-4
1.709911693E1,3.817795368E-4,-1.985253533E-3,1.527118147E-4
1.711792662E1,9.926267667E-4,1.527118147E-4,1.527118147E-4
1.713673635E1,7.635590737E-5,1.985253533E-3,-4.581354442E-4
1.715554609E1,-2.290677221E-4,3.512371797E-3,-4.581354442E-4
1.717435583E1,6.872031372E-4,2.901524538E-3,4.581354442E-4
1.719316557E1,-2.290677221E-4,1.985253533E-3,4.581354442E-4
1.721197531E1,7.635590737E-5,1.068982761E-3,4.581354442E-4
1.723078505E1,7.635590737E-5,-4.581354442E-4,1.527118147E-4
1.724959479E1,7.635590737E-5,-1.679830020E-3,1.527118147E-4
1.726840453E1,7.635590737E-5,-2.901524538E-3,1.527118147E-4
1.728721427E1,6.872031372E-4,-3.206948051E-3,4.581354442E-4
1.730602401E1,3.817795368E-4,-1.679830020E-3,1.527118147E-4
1.732483375E1,9.926267667E-4,-4.581354442E-4,4.581354442E-4
1.734364349E1,6.872031372E-4,1.527118147E-4,4.581354442E-4
1.736245323E1,6.872031372E-4,4.581354442E-4,7.635590737E-4
1.738126292E1,3.817795368E-4,1.068982761E-3,1.527118147E-4
1.740007266E1,7.635590737E-5,4.581354442E-4,4.581354442E-4
1.741888240E1,-2.290677221E-4,-7.635590737E-4,4.581354442E-4
1.743769214E1,1.298050396E-3,-2.596100792E-3,1.374406274E-3
1.745650188E1,9.926267667E-4,-1.679830020E-3,1.068982761E-3
1.747531162E1,9.926267667E-4,-1.985253533E-3,1.068982761E-3
1.749412135E1,9.926267667E-4,-1.679830020E-3,7.635590737E-4
1.751293109E1,7.635590737E-5,-1.068982761E-3,-1.527118147E-4
1.753174083E1,-8.399150101E-4,1.068982761E-3,-1.527118147E-4
1.755055057E1,7.635590737E-5,4.581354442E-4,1.068982761E-3
1.756936031E1,1.298050396E-3,-4.581354442E-4,3.512371797E-3
1.758817000E1,9.926267667E-4,1.374406274E-3,3.817795310E-3
1.760697974E1,-8.399150101E-4,1.679830020E-3,1.374406274E-3
1.762578948E1,1.298050396E-3,-1.374406274E-3,7.635590737E-4
1.764459922E1,1.603474026E-3,2.290677279E-3,-1.068982761E-3
1.766340896E1,3.817795368E-4,6.872031838E-3,-1.527118147E-4
1.768221870E1,3.817795368E-4,5.344913341E-3,4.581354442E-4
1.770102844E1,2.519744914E-3,1.679830020E-3,3.206948051E-3
1.771983818E1,2.519744914E-3,2.901524538E-3,3.817795310E-3
1.773864792E1,-5.344913807E-4,5.344913341E-3,4.123218823E-3
1.775745760E1,3.817795368E-4,3.206948051E-3,3.512371797E-3
1.777626734E1,-5.344913807E-4,-7.635590737E-4,2.290677279E-3
1.779507708E1,-2.290677221E-4,-1.985253533E-3,4.581354442E-4
1.781388682E1,3.817795368E-4,-1.679830020E-3,-1.527118147E-4
1.783269656E1,1.298050396E-3,-1.068982761E-3,-4.581354442E-4
1.785150630E1,6.872031372E-4,-4.581354442E-4,-7.635590737E-4
1.787031604E1,1.603474026E-3,1.068982761E-3,1.527118147E-4
1.788912578E1,3.817795368E-4,2.901524538E-3,7.635590737E-4
1.790793552E1,-5.344913807E-4,1.679830020E-3,1.527118147E-4
1.792674526E1,6.872031372E-4,4.581354442E-4,1.527118147E-4
1.794555495E1,3.817795368E-4,7.635590737E-4,1.527118147E-4
1.796436469E1,7.635590737E-5,7.635590737E-4,-1.527118147E-4
1.798317443E1,7.635590737E-5,-1.679830020E-3,4.581354442E-4
1.800198417E1,6.872031372E-4,-4.123218823E-3,4.581354442E-4
1.802079391E1,-2.290677221E-4,-3.817795310E-3,1.985253533E-3
1.803960365E1,3.817795368E-4,-1.985253533E-3,1.679830020E-3
1.805841339E1,6.872031372E-4,-7.635590737E-4,1.068982761E-3
1.807722312E1,3.817795368E-4,1.679830020E-3,1.068982761E-3
1.809603281E1,6.872031372E-4,2.290677279E-3,1.527118147E-4
1.811484255E1,7.635590737E-5,2.596100792E-3,1.527118147E-4
1.813365229E1,-5.344913807E-4,2.596100792E-3,1.527118147E-4
1.815246203E1,7.635590737E-5,-1.527118147E-4,4.581354442E-4
1.817127177E1,7.635590737E-5,-1.068982761E-3,7.635590737E-4
1.819008151E1,7.635590737E-5,-2.290677279E-3,1.068982761E-3
1.820889125E1,3.817795368E-4,-3.512371797E-3,7.635590737E-4
1.822770099E1,9.926267667E-4,-3.206948051E-3,1.527118147E-4
1.824651068E1,7.635590737E-5,-1.679830020E-3,7.635590737E-4
1.826532042E1,3.817795368E-4,-4.581354442E-4,4.581354442E-4
1.828413016E1,-2.290677221E-4,1.374406274E-3,7.635590737E-4
1.830293990E1,6.872031372E-4,1.374406274E-3,7.635590737E-4
1.832174964E1,3.817795368E-4,1.068982761E-3,7.635590737E-4
1.834055938E1,3.817795368E-4,-1.527118147E-4,7.635590737E-4
1.835936912E1,7.635590737E-5,-4.581354442E-4,4.581354442E-4
1.837817885E1,3.817795368E-4,-4.581354442E-4,7.635590737E-4
1.839698854E1,3.817795368E-4,-7.635590737E-4,-1.527118147E-4
1.841579828E1,-5.344913807E-4,-1.374406274E-3,4.581354442E-4
1.843460802E1,-5.344913807E-4,-1.985253533E-3,1.068982761E-3
1.845341776E1,6.872031372E-4,-1.679830020E-3,1.679830020E-3
1.847222750E1,3.817795368E-4,1.527118147E-4,2.596100792E-3
1.849103724E1,6.872031372E-4,1.527118147E-4,2.596100792E-3
1.850984698E1,6.872031372E-4,-1.527118147E-4,1.985253533E-3
1.852865667E1,-5.344913807E-4,1.068982761E-3,7.635590737E-4
1.854746641E1,-8.399150101E-4,1.068982761E-3,1.527118147E-4
1.856627615E1,7.635590737E-5,1.068982761E-3,3.206948051E-3
1.858508589E1,3.817795368E-4,1.679830020E-3,5.650337320E-3
1.860389562E1,-5.344913807E-4,4.428642802E-3,4.123218823E-3
1.862270536E1,-5.344913807E-4,1.374406274E-3,1.985253533E-3
1.864151505E1,1.908897655E-3,-1.679830020E-3,1.068982761E-3
1.866032479E1,1.298050396E-3,2.596100792E-3,4.581354442E-4
1.867913453E1,7.635590737E-5,7.482878864E-3,1.374406274E-3
1.869794427E1,-1.145338640E-3,5.650337320E-3,2.901524538E-3
1.871675401E1,1.603474026E-3,1.679830020E-3,5.955760833E-3
1.873556375E1,3.817795368E-4,3.512371797E-3,5.650337320E-3
1.875437344E1,-2.367033157E-3,5.955760833E-3,5.039489828E-3
1.877318318E1,-1.145338640E-3,2.596100792E-3,4.734066315E-3
1.879199292E1,-1.756185899E-3,1.527118147E-4,2.901524538E-3
1.881080266E1,-8.399150101E-4,-3.206948051E-3,1.068982761E-3
1.882961240E1,1.603474026E-3,-1.985253533E-3,4.581354442E-4
1.884842214E1,9.926267667E-4,-7.635590737E-4,-1.374406274E-3
1.886723188E1,1.908897655E-3,1.527118147E-4,4.581354442E-4
1.888604156E1,2.214321401E-3,2.596100792E-3,2.290677279E-3
1.890485130E1,7.635590737E-5,4.123218823E-3,1.679830020E-3
1.892366104E1,-5.344913807E-4,1.374406274E-3,7.635590737E-4
1.894247078E1,1.298050396E-3,-1.068982761E-3,1.985253533E-3
1.896128052E1,1.298050396E-3,1.374406274E-3,1.374406274E-3
1.898009021E1,-8.399150101E-4,2.290677279E-3,1.374406274E-3
1.899889995E1,-8.399150101E-4,-1.068982761E-3,1.679830020E-3
1.901770969E1,-2.290677221E-4,-4.123218823E-3,1.985253533E-3
1.903651943E1,7.635590737E-5,-3.817795310E-3,1.985253533E-3
1.905532917E1,7.635590737E-5,-1.374406274E-3,1.985253533E-3
1.907413891E1,7.635590737E-5,1.068982761E-3,1.679830020E-3
1.909294859E1,7.635590737E-5,3.512371797E-3,1.374406274E-3
1.911175833E1,3.817795368E-4,4.428642802E-3,1.985253533E-3
1.913056807E1,7.635590737E-5,3.817795310E-3,1.374406274E-3
1.914937781E1,7.635590737E-5,2.596100792E-3,1.068982761E-3
1.916818755E1,-2.290677221E-4,2.290677279E-3,1.679830020E-3
1.918699724E1,-1.756185899E-3,5.344913341E-3,1.985253533E-3
1.920580698E1,-2.977880416E-3,1.114796288E-2,1.374406274E-3
1.922461672E1,-2.061609412E-3,6.261184346E-3,7.635590737E-4
1.924342646E1,3.817795368E-4,-4.581354442E-4,4.581354442E-4
1.926223620E1,7.635590737E-5,-2.901524538E-3,-1.527118147E-4
1.928104594E1,-5.344913807E-4,-5.955760833E-3,7.635590737E-4
1.929985563E1,2.519744914E-3,-6.566607859E-3,1.374406274E-3
1.931866536E1,1.908897655E-3,-3.512371797E-3,1.374406274E-3
1.933747510E1,1.298050396E-3,7.635590737E-4,1.374406274E-3
1.935628484E1,6.872031372E-4,1.985253533E-3,7.635590737E-4
1.937509453E1,7.635590737E-5,1.679830020E-3,1.068982761E-3
1.939390427E1,6.872031372E-4,-7.635590737E-4,1.679830020E-3
1.941271401E1,6.872031372E-4,-1.679830020E-3,7.635590737E-4
1.943152375E1,7.635590737E-5,-1.374406274E-3,4.581354442E-4
1.945033349E1,-2.290677221E-4,-4.581354442E-4,7.635590737E-4
1.946914318E1,7.635590737E-5,1.068982761E-3,1.527118147E-4
1.948795292E1,-5.344913807E-4,1.679830020E-3,-1.679830020E-3
1.950676266E1,-8.399150101E-4,1.679830020E-3,1.527118147E-4
1.952557240E1,3.817795368E-4,-7.635590737E-4,2.901524538E-3
1.954438214E1,1.908897655E-3,1.527118147E-4,3.512371797E-3
1.956319182E1,1.298050396E-3,4.734066315E-3,1.068982761E-3
1.958200156E1,-8.399150101E-4,3.817795310E-3,-1.374406274E-3
1.960081130E1,1.298050396E-3,1.068982761E-3,-1.679830020E-3
1.961962104E1,3.817795368E-4,3.817795310E-3,-7.635590737E-4
1.963843073E1,3.817795368E-4,6.261184346E-3,7.635590737E-4
1.965724047E1,7.635590737E-5,3.206948051E-3,1.679830020E-3
1.967605021E1,2.519744914E-3,2.596100792E-3,3.512371797E-3
1.969485995E1,6.872031372E-4,5.955760833E-3,3.206948051E-3
1.971366969E1,-1.145338640E-3,6.566607859E-3,2.596100792E-3
1.973247938E1,-5.344913807E-4,1.985253533E-3,1.679830020E-3
1.975128912E1,-8.399150101E-4,-1.679830020E-3,-1.527118147E-4
1.977009885E1,6.872031372E-4,-1.068982761E-3,-1.068982761E-3
1.978890859E1,6.872031372E-4,4.581354442E-4,-1.374406274E-3
1.980771833E1,3.817795368E-4,4.581354442E-4,-1.527118147E-4
1.982652802E1,1.603474026E-3,-7.635590737E-4,1.527118147E-4
1.984533776E1,3.817795368E-4,4.581354442E-4,1.527118147E-4
1.986414750E1,-5.344913807E-4,1.068982761E-3,4.581354442E-4
1.988295724E1,6.872031372E-4,-7.635590737E-4,1.527118147E-4
1.990176693E1,1.298050396E-3,1.068982761E-3,1.527118147E-4
1.992057667E1,-2.290677221E-4,1.985253533E-3,1.527118147E-4
1.993938641E1,-5.344913807E-4,-7.635590737E-4,1.527118147E-4
1.995819615E1,-2.290677221E-4,-3.512371797E-3,-4.581354442E-4
1.997700583E1,9.926267667E-4,-3.817795310E-3,1.527118147E-4
1.999581557E1,3.817795368E-4,-1.374406274E-3,4.581354442E-4
2.001462531E1,7.635590737E-5,4.581354442E-4,7.635590737E-4
2.003343505E1,3.817795368E-4,1.527118147E-4,4.581354442E-4
2.005224474E1,7.635590737E-5,1.985253533E-3,1.527118147E-4
2.007105448E1,6.872031372E-4,2.596100792E-3,1.527118147E-4
2.008986422E1,6.872031372E-4,3.206948051E-3,7.635590737E-4
2.010867396E1,3.817795368E-4,1.985253533E-3,7.635590737E-4
2.012748365E1,7.635590737E-5,1.527118147E-4,4.581354442E-4
2.014629339E1,-2.290677221E-4,-1.068982761E-3,1.068982761E-3
2.016510312E1,3.817795368E-4,-3.206948051E-3,7.635590737E-4
2.018391286E1,7.635590737E-5,-2.901524538E-3,1.527118147E-4
2.020272255E1,6.872031372E-4,-2.290677279E-3,-1.527118147E-4
2.022153229E1,3.817795368E-4,-1.068982761E-3,-1.527118147E-4
2.024034203E1,-2.290677221E-4,4.581354442E-4,7.635590737E-4
2.025915172E1,-2.290677221E-4,1.374406274E-3,7.635590737E-4
2.027796146E1,7.635590737E-5,1.374406274E-3,7.635590737E-4
2.029677120E1,3.817795368E-4,-7.635590737E-4,7.635590737E-4
2.031558094E1,3.817795368E-4,-1.068982761E-3,1.374406274E-3
2.033439062E1,3.817795368E-4,-1.679830020E-3,1.374406274E-3
2.035320037E1,1.298050396E-3,-2.290677279E-3,1.068982761E-3
2.037201010E1,1.298050396E-3,-1.985253533E-3,7.635590737E-4
2.039081984E1,7.635590737E-5,-7.635590737E-4,1.527118147E-4
2.040962953E1,-5.344913807E-4,-4.581354442E-4,-1.527118147E-4
2.042843927E1,7.635590737E-5,1.527118147E-4,2.290677279E-3
2.044724901E1,1.298050396E-3,7.635590737E-4,4.428642802E-3
2.046605875E1,6.872031372E-4,2.901524538E-3,3.512371797E-3
2.048486844E1,-8.399150101E-4,1.527118147E-4,1.374406274E-3
2.050367818E1,9.926267667E-4,-2.290677279E-3,1.068982761E-3
2.052248792E1,9.926267667E-4,1.985253533E-3,1.527118147E-4
2.054129760E1,6.872031372E-4,7.177455351E-3,7.635590737E-4
2.056010734E1,-2.290677221E-4,5.039489828E-3,1.068982761E-3
2.057891708E1,2.214321401E-3,2.290677279E-3,3.206948051E-3
2.059772682E1,1.603474026E-3,4.123218823E-3,3.817795310E-3
2.061653651E1,-8.399150101E-4,5.344913341E-3,4.123218823E-3
2.063534625E1,-2.290677221E-4,1.985253533E-3,4.123218823E-3
2.065415599E1,-5.344913807E-4,-1.068982761E-3,1.679830020E-3
2.067296568E1,7.635590737E-5,-1.679830020E-3,4.581354442E-4
2.069177542E1,6.872031372E-4,-4.581354442E-4,-1.374406274E-3
2.071058516E1,3.817795368E-4,7.635590737E-4,-1.679830020E-3
2.072939490E1,6.872031372E-4,1.679830020E-3,-4.581354442E-4
2.074820458E1,3.817795368E-4,1.679830020E-3,1.679830020E-3
2.076701432E1,9.926267667E-4,4.581354442E-4,3.512371797E-3
2.078582406E1,1.908897655E-3,-1.985253533E-3,2.901524538E-3
2.080463375E1,2.214321401E-3,-7.635590737E-4,1.679830020E-3
2.082344349E1,6.872031372E-4,4.428642802E-3,-1.527118147E-4
2.084225323E1,-1.756185899E-3,4.428642802E-3,-7.635590737E-4
2.086106297E1,-1.145338640E-3,-4.581354442E-4,4.581354442E-4
2.087987266E1,6.872031372E-4,-6.261184346E-3,2.596100792E-3
2.089868240E1,6.872031372E-4,-5.955760833E-3,3.512371797E-3
2.091749214E1,3.817795368E-4,-4.734066315E-3,2.901524538E-3
2.093630182E1,-5.344913807E-4,-5.039489828E-3,1.374406274E-3
2.095511156E1,-1.145338640E-3,-5.650337320E-3,1.374406274E-3
2.097392130E1,-1.450762269E-3,-6.261184346E-3,1.068982761E-3
2.099273099E1,-2.290677221E-4,-3.206948051E-3,7.635590737E-4
2.101154073E1,-8.399150101E-4,1.068982761E-3,-1.527118147E-4
2.103035047E1,-1.145338640E-3,3.512371797E-3,-1.527118147E-4
2.104916016E1,-2.290677221E-4,4.734066315E-3,-7.635590737E-4
2.106796990E1,6.872031372E-4,3.817795310E-3,-1.527118147E-4
2.108677964E1,2.519744914E-3,1.985253533E-3,1.527118147E-4
2.110558932E1,2.519744914E-3,1.985253533E-3,1.527118147E-4
2.112439906E1,-8.399150101E-4,1.985253533E-3,4.581354442E-4
2.114320880E1,-2.977880416E-3,-5.039489828E-3,2.290677279E-3
2.116201849E1,-3.894151188E-3,-1.786728203E-2,6.261184346E-3
2.118082823E1,-2.061609412E-3,-2.794626169E-2,7.482878864E-3
2.119963797E1,1.298050396E-3,-2.977880463E-2,6.872031838E-3
2.121844766E1,1.603474026E-3,-1.847812906E-2,1.679830020E-3
2.123725740E1,3.817795368E-4,-4.123218823E-3,-1.679830020E-3
2.125606714E1,6.872031372E-4,1.084253844E-2,-1.527118147E-4
2.127487688E1,6.872031372E-4,2.000524849E-2,1.527118147E-4
2.129368656E1,-2.290677221E-4,2.336490713E-2,-4.581354442E-4
2.131249630E1,-5.344913807E-4,2.061609551E-2,-1.374406274E-3
2.133130599E1,-3.588727675E-3,9.620844387E-3,-2.901524538E-3
2.135011573E1,-3.588727675E-3,-5.955760833E-3,-7.635590737E-4
2.136892547E1,-1.145338640E-3,-2.092151903E-2,1.985253533E-3
2.138773516E1,9.926267667E-4,-2.397575416E-2,5.955760833E-3
2.140654490E1,9.926267667E-4,-1.511846948E-2,6.261184346E-3
2.142535464E1,7.635590737E-5,-5.039489828E-3,5.955760833E-3
2.144416432E1,-2.290677221E-4,2.901524538E-3,4.428642802E-3
2.146297406E1,-2.367033157E-3,9.926267900E-3,2.596100792E-3
2.148178380E1,-3.588727675E-3,1.084253844E-2,4.581354442E-4
2.150059354E1,-3.283303929E-3,4.734066315E-3,1.068982761E-3
2.151940323E1,7.635590737E-5,1.527118147E-4,2.596100792E-3
2.153821297E1,7.635590737E-5,1.679830020E-3,2.901524538E-3
2.155702266E1,-2.290677221E-4,4.123218823E-3,2.596100792E-3
2.157583240E1,2.519744914E-3,2.290677279E-3,7.635590737E-4
2.159464214E1,3.436015919E-3,5.650337320E-3,1.985253533E-3
2.161345182E1,3.130592173E-3,9.315420873E-3,1.374406274E-3
2.163226156E1,9.926267667E-4,9.620844387E-3,1.374406274E-3
2.165107130E1,7.635590737E-5,3.206948051E-3,4.581354442E-4
2.166988099E1,7.635590737E-5,-2.901524538E-3,1.068982761E-3
2.168869073E1,-2.290677221E-4,-5.955760833E-3,7.635590737E-4
2.170750042E1,-1.756185899E-3,-4.734066315E-3,7.635590737E-4
2.172631016E1,-1.756185899E-3,-5.650337320E-3,7.635590737E-4
2.174511990E1,-5.344913807E-4,-3.206948051E-3,-4.581354442E-4
2.176392958E1,-8.399150101E-4,2.596100792E-3,-7.635590737E-4
2.178273932E1,1.298050396E-3,2.901524538E-3,-1.374406274E-3
2.180154906E1,3.436015919E-3,1.374406274E-3,-7.635590737E-4
2.182035875E1,4.046862945E-3,2.596100792E-3,7.635590737E-4
2.183916849E1,2.214321401E-3,3.512371797E-3,1.679830020E-3
2.185797823E1,9.926267667E-4,2.290677279E-3,1.068982761E-3
2.187678792E1,7.635590737E-5,1.068982761E-3,1.374406274E-3
2.189559766E1,-1.145338640E-3,7.635590737E-4,1.068982761E-3
2.191440740E1,-8.399150101E-4,1.374406274E-3,1.068982761E-3
2.193321708E1,-2.290677221E-4,4.581354442E-4,1.068982761E-3
2.195202682E1,-8.399150101E-4,-1.527118147E-4,4.581354442E-4
2.197083651E1,-8.399150101E-4,-2.290677279E-3,-1.527118147E-4
2.198964625E1,-1.145338640E-3,-3.206948051E-3,-1.374406274E-3
2.200845599E1,-2.290677221E-4,-2.901524538E-3,-1.679830020E-3
2.202726568E1,7.635590737E-5,7.635590737E-4,1.527118147E-4
2.204607542E1,3.817795368E-4,3.206948051E-3,1.374406274E-3
2.206488516E1,-2.290677221E-4,3.817795310E-3,4.581354442E-4
2.208369484E1,3.817795368E-4,1.527118147E-4,7.635590737E-4
2.210250458E1,2.825168660E-3,-3.512371797E-3,1.679830020E-3
2.212131427E1,2.825168660E-3,-1.985253533E-3,1.374406274E-3
2.214012401E1,9.926267667E-4,-1.068982761E-3,-4.581354442E-4
2.215893375E1,3.817795368E-4,-1.679830020E-3,4.581354442E-4
2.217774344E1,6.872031372E-4,-1.679830020E-3,3.206948051E-3
2.219655318E1,-5.344913807E-4,2.596100792E-3,2.290677279E-3
2.221536287E1,-2.061609412E-3,3.206948051E-3,4.581354442E-4
2.223417260E1,7.635590737E-5,1.068982761E-3,-7.635590737E-4
2.225298234E1,1.908897655E-3,2.901524538E-3,-1.068982761E-3
2.227179203E1,1.908897655E-3,9.926267900E-3,1.068982761E-3
2.229060177E1,9.926267667E-4,7.177455351E-3,7.635590737E-4
2.230941151E1,1.603474026E-3,1.068982761E-3,4.123218823E-3
2.232822120E1,1.908897655E-3,1.679830020E-3,3.817795310E-3
2.234703094E1,-2.290677221E-4,5.650337320E-3,4.123218823E-3
2.236584062E1,-5.344913807E-4,6.872031838E-3,4.428642802E-3
2.238465037E1,-1.756185899E-3,3.206948051E-3,2.596100792E-3
2.240346010E1,-1.450762269E-3,7.635590737E-4,4.581354442E-4
2.242226979E1,-5.344913807E-4,-2.290677279E-3,1.527118147E-4
2.244107953E1,-5.344913807E-4,-4.734066315E-3,-4.581354442E-4
2.245988922E1,7.635590737E-5,-6.566607859E-3,1.527118147E-4
2.247869896E1,1.298050396E-3,-4.734066315E-3,1.068982761E-3
2.249750870E1,7.635590737E-5,7.635590737E-4,1.527118147E-4
2.251631839E1,-5.344913807E-4,1.985253533E-3,-4.581354442E-4
2.253512812E1,6.872031372E-4,2.901524538E-3,1.068982761E-3
2.255393781E1,6.872031372E-4,5.344913341E-3,7.635590737E-4
2.257274755E1,-2.290677221E-4,4.123218823E-3,7.635590737E-4
2.259155724E1,-8.399150101E-4,4.581354442E-4,1.679830020E-3
2.261036698E1,-5.344913807E-4,-5.039489828E-3,1.527118147E-4
2.262917672E1,-8.399150101E-4,-7.177455351E-3,7.635590737E-4
2.264798641E1,3.817795368E-4,-5.955760833E-3,-4.581354442E-4
2.266679615E1,9.926267667E-4,-1.374406274E-3,1.527118147E-4
2.268560589E1,3.817795368E-4,4.734066315E-3,4.581354442E-4
2.270441557E1,1.298050396E-3,9.009997360E-3,1.068982761E-3
2.272322531E1,6.872031372E-4,8.399149403E-3,7.635590737E-4
2.274203500E1,-8.399150101E-4,4.734066315E-3,1.068982761E-3
2.276084474E1,-1.145338640E-3,7.635590737E-4,1.527118147E-4
2.277965443E1,-2.061609412E-3,-3.512371797E-3,1.527118147E-4
2.279846417E1,-5.344913807E-4,-6.261184346E-3,4.581354442E-4
2.281727391E1,6.872031372E-4,-6.872031838E-3,1.679830020E-3
2.283608359E1,1.603474026E-3,-4.123218823E-3,1.985253533E-3
2.285489333E1,1.298050396E-3,-1.068982761E-3,1.068982761E-3
2.287370302E1,9.926267667E-4,2.901524538E-3,-1.527118147E-4
2.289251276E1,-2.290677221E-4,6.566607859E-3,-1.374406274E-3
2.291132245E1,-8.399150101E-4,8.399149403E-3,-1.068982761E-3
2.293013219E1,3.817795368E-4,3.817795310E-3,3.817795310E-3
2.294894193E1,6.872031372E-4,1.068982761E-3,5.039489828E-3
2.296775162E1,3.817795368E-4,-2.596100792E-3,3.817795310E-3
2.298656135E1,-2.290677221E-4,-8.704573847E-3,1.068982761E-3
2.300537104E1,1.298050396E-3,-1.114796288E-2,-1.374406274E-3
2.302418078E1,1.908897655E-3,-5.039489828E-3,-7.635590737E-4
2.304299047E1,6.872031372E-4,5.039489828E-3,7.635590737E-4
2.306180021E1,-1.145338640E-3,7.482878864E-3,3.817795310E-3
2.308060995E1,3.436015919E-3,7.482878864E-3,5.955760833E-3
2.309941964E1,5.573981442E-3,1.298050396E-2,6.566607859E-3
2.311822938E1,6.184828468E-3,1.634016447E-2,6.261184346E-3
2.313703906E1,4.963133950E-3,1.664558798E-2,2.901524538E-3
2.315584880E1,1.298050396E-3,1.420219894E-2,4.581354442E-4
2.317465849E1,-4.504998680E-3,9.315420873E-3,-1.068982761E-3
2.319346823E1,-8.170082234E-3,4.581354442E-4,-1.374406274E-3
2.321227792E1,-7.253811229E-3,-1.023169141E-2,4.428642802E-3
2.323108766E1,-1.145338640E-3,-1.145338640E-2,1.114796288E-2
2.324989740E1,-1.756185899E-3,-5.344913341E-3,1.023169141E-2
2.326870708E1,-2.061609412E-3,-6.872031838E-3,4.428642802E-3
2.328751682E1,1.603474026E-3,-1.206423342E-2,-1.527118147E-4
2.330632651E1,2.519744914E-3,-1.145338640E-2,-2.901524538E-3
2.332513625E1,-8.399150101E-4,-6.872031838E-3,-5.344913341E-3
2.334394594E1,-7.253811229E-3,-7.788302377E-3,-4.428642802E-3
2.336275568E1,-3.718532622E-2,-2.000524849E-2,-9.620844387E-3
2.338156536E1,-3.138227761E-2,-1.695101149E-2,-1.053711493E-2
2.340037510E1,6.795675959E-3,-4.123218823E-3,8.399149403E-3
2.341918484E1,-4.810422193E-3,9.315420873E-3,5.344913341E-3
2.343799453E1,6.795675959E-3,1.985253533E-3,3.512371797E-3
2.345680427E1,1.046075951E-2,1.023169141E-2,4.734066315E-3
2.347561396E1,6.184828468E-3,1.939439960E-2,-4.581354442E-4
2.349442370E1,6.795675959E-3,2.000524849E-2,-1.068982761E-3
2.351323339E1,1.168245357E-2,1.481304597E-2,1.374406274E-3
2.353204312E1,1.168245357E-2,9.926267900E-3,3.206948051E-3
2.355085281E1,5.879404955E-3,4.123218823E-3,3.512371797E-3
2.356966255E1,2.519744914E-3,-2.596100792E-3,3.817795310E-3
2.358847229E1,2.214321401E-3,-9.926267900E-3,3.817795310E-3
2.360728198E1,3.436015919E-3,-1.389677543E-2,4.123218823E-3
2.362609172E1,2.519744914E-3,-1.145338640E-2,2.901524538E-3
2.364490141E1,-2.290677221E-4,-1.985253533E-3,4.581354442E-4
2.366371115E1,-1.145338640E-3,6.566607859E-3,1.374406274E-3
2.368252083E1,3.817795368E-4,8.399149403E-3,2.901524538E-3
2.370133057E1,2.825168660E-3,7.482878864E-3,4.123218823E-3
2.372014026E1,2.214321401E-3,7.177455351E-3,4.581354442E-4
2.373895000E1,2.519744914E-3,4.428642802E-3,-2.596100792E-3
2.375775969E1,4.963133950E-3,1.985253533E-3,-3.817795310E-3
2.377656943E1,4.046862945E-3,3.817795310E-3,-1.068982761E-3
2.379537912E1,9.926267667E-4,3.206948051E-3,1.068982761E-3
2.381418885E1,7.635590737E-5,-7.635590737E-4,4.428642802E-3
2.383299854E1,3.817795368E-4,1.374406274E-3,6.566607859E-3
2.385180828E1,-2.061609412E-3,8.399149403E-3,5.039489828E-3
2.387061802E1,-2.061609412E-3,1.084253844E-2,3.817795310E-3
2.388942771E1,-8.399150101E-4,6.872031838E-3,1.068982761E-3
2.390823745E1,7.635590737E-5,2.596100792E-3,-1.985253533E-3
2.392704714E1,1.603474026E-3,-1.527118147E-4,-2.901524538E-3
2.394585688E1,1.908897655E-3,-2.596100792E-3,-2.901524538E-3
2.396466656E1,1.603474026E-3,-3.512371797E-3,-1.679830020E-3
2.398347630E1,6.872031372E-4,-4.123218823E-3,1.527118147E-4
2.400228599E1,-5.344913807E-4,-3.817795310E-3,-7.635590737E-4
2.402109573E1,7.635590737E-5,-2.290677279E-3,-4.581354442E-4
2.403990542E1,-8.399150101E-4,4.123218823E-3,4.581354442E-4
2.405871516E1,-2.367033157E-3,7.788302377E-3,1.374406274E-3
2.407752484E1,-5.344913807E-4,4.123218823E-3,2.596100792E-3
2.409633458E1,7.635590737E-5,1.374406274E-3,4.428642802E-3
2.411514432E1,-1.145338640E-3,1.527118147E-4,5.039489828E-3
2.413395401E1,-3.283303929E-3,-3.206948051E-3,3.817795310E-3
2.415276370E1,-2.367033157E-3,-8.399149403E-3,1.068982761E-3
2.417157344E1,7.635590737E-5,-1.023169141E-2,-7.635590737E-4
2.419038318E1,1.603474026E-3,-4.734066315E-3,-2.290677279E-3
2.420919287E1,2.519744914E-3,6.261184346E-3,-2.901524538E-3
2.422800260E1,2.825168660E-3,1.145338640E-2,-2.596100792E-3
2.424681229E1,1.603474026E-3,9.315420873E-3,-4.581354442E-4
2.426562203E1,1.603474026E-3,1.679830020E-3,1.985253533E-3
2.428443172E1,2.214321401E-3,-5.039489828E-3,3.512371797E-3
2.430324146E1,2.214321401E-3,-4.428642802E-3,4.123218823E-3
2.432205115E1,6.872031372E-4,-2.290677279E-3,1.068982761E-3
2.434086089E1,-8.399150101E-4,-1.068982761E-3,-4.581354442E-4
2.435967057E1,3.817795368E-4,2.290677279E-3,-1.985253533E-3
2.437848031E1,7.635590737E-5,6.261184346E-3,-3.817795310E-3
2.439729000E1,9.926267667E-4,1.175880991E-2,-3.512371797E-3
2.441609974E1,2.214321401E-3,1.389677543E-2,-4.581354442E-4
2.443490943E1,2.519744914E-3,1.267508045E-2,2.290677279E-3
2.445371917E1,6.872031372E-4,7.177455351E-3,1.985253533E-3
2.447252885E1,7.635590737E-5,-2.901524538E-3,4.581354442E-4
2.449133859E1,9.926267667E-4,-9.009997360E-3,-4.581354442E-4
2.451014833E1,-2.290677221E-4,-5.955760833E-3,-7.635590737E-4
2.452895802E1,-8.399150101E-4,-2.290677279E-3,-1.374406274E-3
2.454776776E1,-5.344913807E-4,-2.901524538E-3,1.374406274E-3
2.456657745E1,2.519744914E-3,-1.068982761E-3,3.206948051E-3
2.458538714E1,6.872031372E-4,3.512371797E-3,4.123218823E-3
2.460419688E1,6.872031372E-4,5.039489828E-3,2.901524538E-3
2.462300662E1,6.872031372E-4,2.901524538E-3,2.596100792E-3
2.464181630E1,-5.344913807E-4,1.679830020E-3,2.290677279E-3
2.466062604E1,-8.399150101E-4,4.581354442E-4,1.527118147E-4
2.467943573E1,-2.290677221E-4,-7.635590737E-4,-1.679830020E-3
2.469824547E1,-8.399150101E-4,-1.679830020E-3,-2.596100792E-3
2.471705516E1,-5.344913807E-4,-1.985253533E-3,-7.635590737E-4
2.473586484E1,-2.290677221E-4,-1.527118147E-4,1.374406274E-3
2.475467458E1,-1.145338640E-3,-1.527118147E-4,2.596100792E-3
2.477348432E1,-5.344913807E-4,-1.374406274E-3,4.123218823E-3
2.479229401E1,-5.344913807E-4,-2.901524538E-3,1.985253533E-3
2.481110370E1,-1.145338640E-3,-3.512371797E-3,-1.527118147E-4
2.482991344E1,7.635590737E-5,-4.734066315E-3,-7.635590737E-4
2.484872318E1,1.298050396E-3,-3.206948051E-3,1.527118147E-4
2.486753286E1,1.298050396E-3,-7.635590737E-4,1.527118147E-4
2.488634260E1,9.926267667E-4,7.635590737E-4,1.527118147E-4
2.490515229E1,1.908897655E-3,7.635590737E-4,-4.581354442E-4
2.492396203E1,2.519744914E-3,2.596100792E-3,-4.581354442E-4
2.494277172E1,2.519744914E-3,6.566607859E-3,-1.527118147E-4
2.496158146E1,-2.290677221E-4,7.177455351E-3,4.581354442E-4
2.498039115E1,-1.145338640E-3,2.596100792E-3,1.679830020E-3
2.499920089E1,-8.399150101E-4,-5.344913341E-3,2.290677279E-3
2.501801057E1,6.872031372E-4,-8.704573847E-3,1.985253533E-3
2.503682031E1,6.872031372E-4,-6.566607859E-3,4.581354442E-4
2.505563000E1,7.635590737E-5,-4.734066315E-3,-1.527118147E-4
2.507443974E1,3.817795368E-4,-1.679830020E-3,-1.527118147E-4
2.509324943E1,1.298050396E-3,1.068982761E-3,-1.527118147E-4
2.511205917E1,1.603474026E-3,5.955760833E-3,-4.581354442E-4
2.513086885E1,1.603474026E-3,7.788302377E-3,-7.635590737E-4
2.514967859E1,3.817795368E-4,9.620844387E-3,-1.679830020E-3
2.516848828E1,-5.344913807E-4,6.261184346E-3,-2.290677279E-3
2.518729797E1,-5.344913807E-4,1.679830020E-3,-1.527118147E-4
2.520610771E1,9.926267667E-4,-1.679830020E-3,2.596100792E-3
2.522491740E1,3.817795368E-4,-1.679830020E-3,2.901524538E-3
2.524372714E1,-1.450762269E-3,-2.901524538E-3,7.635590737E-4
2.526253682E1,-8.399150101E-4,-5.955760833E-3,1.527118147E-4
2.528134656E1,7.635590737E-5,-2.901524538E-3,1.068982761E-3
2.530015625E1,3.817795368E-4,2.596100792E-3,1.374406274E-3
2.531896599E1,-2.290677221E-4,3.512371797E-3,1.374406274E-3
2.533777568E1,1.603474026E-3,2.596100792E-3,2.596100792E-3
2.535658542E1,6.872031372E-4,5.344913341E-3,2.596100792E-3
2.537539510E1,-8.399150101E-4,6.261184346E-3,4.428642802E-3
2.539420484E1,7.635590737E-5,2.901524538E-3,5.344913341E-3
2.541301453E1,-8.399150101E-4,-1.374406274E-3,5.039489828E-3
2.543182427E1,-5.344913807E-4,-3.512371797E-3,2.596100792E-3
2.545063396E1,-1.145338640E-3,-4.428642802E-3,1.374406274E-3
2.546944370E1,-1.145338640E-3,-5.650337320E-3,-1.527118147E-4
2.548825339E1,7.635590737E-5,-5.650337320E-3,1.527118147E-4
2.550706313E1,9.926267667E-4,-1.374406274E-3,1.527118147E-4
2.552587281E1,3.817795368E-4,4.734066315E-3,7.635590737E-4
2.554468250E1,2.214321401E-3,8.399149403E-3,2.290677279E-3
2.556349224E1,3.130592173E-3,1.084253844E-2,2.290677279E-3
2.558230193E1,9.926267667E-4,1.206423342E-2,7.635590737E-4
2.560111167E1,7.635590737E-5,6.872031838E-3,1.374406274E-3
2.561992135E1,3.817795368E-4,-1.679830020E-3,1.985253533E-3
2.563873109E1,3.817795368E-4,-6.261184346E-3,2.596100792E-3
2.565754078E1,7.635590737E-5,-7.482878864E-3,2.596100792E-3
2.567635052E1,-5.344913807E-4,-5.650337320E-3,1.985253533E-3
2.569516021E1,-1.145338640E-3,-3.817795310E-3,1.679830020E-3
2.571396995E1,3.817795368E-4,7.635590737E-4,1.679830020E-3
2.573277964E1,6.872031372E-4,5.344913341E-3,1.679830020E-3
2.575158938E1,7.635590737E-5,7.177455351E-3,1.679830020E-3
2.577039906E1,-1.145338640E-3,7.177455351E-3,1.374406274E-3
2.578920880E1,-5.344913807E-4,5.650337320E-3,1.068982761E-3
2.580801849E1,7.635590737E-5,2.290677279E-3,1.374406274E-3
2.582682818E1,-2.290677221E-4,-1.068982761E-3,1.374406274E-3
2.584563792E1,3.817795368E-4,-4.123218823E-3,1.679830020E-3
2.586444760E1,3.817795368E-4,-4.123218823E-3,2.596100792E-3
2.588325734E1,7.635590737E-5,-2.290677279E-3,2.290677279E-3
2.590206703E1,6.872031372E-4,4.581354442E-4,2.596100792E-3
2.592087677E1,7.635590737E-5,7.635590737E-4,2.290677279E-3
2.593968646E1,-5.344913807E-4,1.068982761E-3,1.679830020E-3
2.595849620E1,-2.290677221E-4,-1.527118147E-4,2.901524538E-3
2.597730589E1,7.635590737E-5,4.581354442E-4,2.596100792E-3
2.599611562E1,7.635590737E-5,1.374406274E-3,2.596100792E-3
2.601492531E1,6.872031372E-4,1.985253533E-3,1.374406274E-3
2.603373500E1,1.298050396E-3,2.901524538E-3,4.581354442E-4
2.605254474E1,-5.344913807E-4,3.817795310E-3,-4.581354442E-4
2.607135443E1,-1.756185899E-3,2.290677279E-3,1.527118147E-4
2.609016417E1,-5.344913807E-4,-1.679830020E-3,2.290677279E-3
2.610897385E1,1.908897655E-3,-2.290677279E-3,3.512371797E-3
2.612778359E1,1.603474026E-3,2.290677279E-3,1.679830020E-3
2.614659328E1,-2.290677221E-4,3.206948051E-3,-1.679830020E-3
2.616540297E1,1.298050396E-3,7.635590737E-4,-1.068982761E-3
2.618421271E1,9.926267667E-4,2.901524538E-3,1.374406274E-3
2.620302240E1,-2.290677221E-4,6.566607859E-3,3.206948051E-3
2.622183214E1,-2.290677221E-4,4.428642802E-3,4.123218823E-3
2.624064182E1,1.298050396E-3,2.901524538E-3,4.734066315E-3
2.625945156E1,7.635590737E-5,7.788302377E-3,3.512371797E-3
2.627826125E1,-1.450762269E-3,9.009997360E-3,1.985253533E-3
2.629707094E1,-8.399150101E-4,3.512371797E-3,1.527118147E-4
2.631588068E1,-8.399150101E-4,-1.068982761E-3,-1.985253533E-3
2.633469036E1,3.817795368E-4,-1.679830020E-3,-3.206948051E-3
2.635350010E1,6.872031372E-4,1.527118147E-4,-2.290677279E-3
2.637230979E1,9.926267667E-4,1.374406274E-3,-1.374406274E-3
2.639111953E1,6.872031372E-4,1.985253533E-3,7.635590737E-4
2.640992922E1,3.817795368E-4,3.206948051E-3,4.581354442E-4
2.642873896E1,3.817795368E-4,2.596100792E-3,-1.527118147E-4
2.644754865E1,9.926267667E-4,3.206948051E-3,4.581354442E-4
2.646635833E1,7.635590737E-5,3.817795310E-3,4.581354442E-4
2.648516807E1,-2.290677221E-4,2.596100792E-3,-7.635590737E-4
2.650397776E1,7.635590737E-5,-1.068982761E-3,-4.581354442E-4
2.652278750E1,3.817795368E-4,-3.817795310E-3,-4.581354442E-4
2.654159719E1,3.817795368E-4,-4.123218823E-3,-1.527118147E-4
2.656040693E1,6.872031372E-4,-1.985253533E-3,1.527118147E-4
2.657921662E1,3.817795368E-4,-1.679830020E-3,1.527118147E-4
2.659802630E1,7.635590737E-5,7.635590737E-4,-1.527118147E-4
2.661683604E1,6.872031372E-4,1.679830020E-3,1.527118147E-4
2.663564573E1,3.817795368E-4,2.596100792E-3,-1.527118147E-4
2.665445547E1,3.817795368E-4,1.985253533E-3,4.581354442E-4
2.667326516E1,7.635590737E-5,1.985253533E-3,7.635590737E-4
2.669207484E1,-2.290677221E-4,1.068982761E-3,1.068982761E-3
2.671088458E1,-2.290677221E-4,-1.527118147E-4,7.635590737E-4
2.672969427E1,9.926267667E-4,-1.374406274E-3,-4.581354442E-4
2.674850401E1,6.872031372E-4,-7.635590737E-4,-4.581354442E-4
2.676731370E1,6.872031372E-4,-1.527118147E-4,-1.068982761E-3
2.678612339E1,7.635590737E-5,1.985253533E-3,1.527118147E-4
2.680493312E1,-2.290677221E-4,1.374406274E-3,1.527118147E-4
2.682374281E1,6.872031372E-4,-4.581354442E-4,1.068982761E-3
2.684255255E1,6.872031372E-4,-4.581354442E-4,1.679830020E-3
2.686136224E1,3.817795368E-4,-4.581354442E-4,1.374406274E-3
2.688017198E1,6.872031372E-4,-4.581354442E-4,4.581354442E-4
2.689898167E1,9.926267667E-4,1.527118147E-4,-1.527118147E-4
2.691779135E1,7.635590737E-5,4.581354442E-4,-7.635590737E-4
2.693660109E1,-8.399150101E-4,1.068982761E-3,-1.374406274E-3
2.695541078E1,-2.290677221E-4,-1.527118147E-4,1.374406274E-3
2.697422052E1,1.298050396E-3,-1.068982761E-3,3.206948051E-3
2.699303021E1,6.872031372E-4,1.527118147E-4,3.512371797E-3
2.701183990E1,-5.344913807E-4,-1.068982761E-3,1.374406274E-3
2.703064964E1,1.298050396E-3,-2.901524538E-3,-4.581354442E-4
2.704945932E1,1.298050396E-3,7.635590737E-4,-1.527118147E-4
2.706826901E1,3.817795368E-4,5.039489828E-3,-4.581354442E-4
2.708707875E1,7.635590737E-5,3.206948051E-3,1.068982761E-3
2.710588844E1,3.130592173E-3,1.068982761E-3,2.901524538E-3
2.712469818E1,1.603474026E-3,4.734066315E-3,3.512371797E-3
2.714350786E1,-2.290677221E-4,6.261184346E-3,3.817795310E-3
2.716231760E1,-2.290677221E-4,1.985253533E-3,3.206948051E-3
2.718112729E1,-2.290677221E-4,-1.374406274E-3,1.679830020E-3
2.719993698E1,7.635590737E-5,-1.374406274E-3,4.581354442E-4
2.721874672E1,7.635590737E-5,-7.635590737E-4,-7.635590737E-4
2.723755641E1,7.635590737E-5,-4.581354442E-4,-1.068982761E-3
2.725636609E1,3.817795368E-4,-4.581354442E-4,-4.581354442E-4
2.727517583E1,1.298050396E-3,1.374406274E-3,4.581354442E-4
2.729398552E1,3.817795368E-4,2.596100792E-3,7.635590737E-4
2.731279526E1,9.926267667E-4,1.679830020E-3,1.527118147E-4
2.733160495E1,9.926267667E-4,1.985253533E-3,4.581354442E-4
2.735041464E1,7.635590737E-5,2.596100792E-3,4.581354442E-4
2.736922438E1,-5.344913807E-4,7.635590737E-4,-4.581354442E-4
2.738803406E1,7.635590737E-5,-1.985253533E-3,1.527118147E-4
2.740684375E1,3.817795368E-4,-3.817795310E-3,4.581354442E-4
2.742565349E1,7.635590737E-5,-4.123218823E-3,-1.527118147E-4
2.744446318E1,7.635590737E-5,-3.512371797E-3,1.068982761E-3
2.746327292E1,-2.290677221E-4,-7.635590737E-4,1.374406274E-3
2.748208260E1,6.872031372E-4,1.527118147E-4,7.635590737E-4
2.750089234E1,-2.290677221E-4,2.290677279E-3,1.527118147E-4
2.751970203E1,-2.290677221E-4,3.817795310E-3,1.527118147E-4
2.753851172E1,-2.290677221E-4,3.206948051E-3,-4.581354442E-4
2.755732146E1,3.817795368E-4,1.679830020E-3,4.581354442E-4
2.757613115E1,-2.290677221E-4,-7.635590737E-4,4.581354442E-4
2.759494089E1,3.817795368E-4,-2.901524538E-3,7.635590737E-4
2.761375057E1,3.817795368E-4,-3.512371797E-3,4.581354442E-4
2.763256026E1,7.635590737E-5,-1.985253533E-3,4.581354442E-4
2.765137000E1,-2.290677221E-4,-4.581354442E-4,1.527118147E-4
2.767017969E1,7.635590737E-5,7.635590737E-4,4.581354442E-4
2.768898938E1,-5.344913807E-4,1.679830020E-3,1.527118147E-4
2.770779912E1,3.817795368E-4,1.374406274E-3,1.527118147E-4
2.772660880E1,3.817795368E-4,1.068982761E-3,4.581354442E-4
2.774541854E1,3.817795368E-4,-4.581354442E-4,1.068982761E-3
2.776422823E1,7.635590737E-5,-1.068982761E-3,4.581354442E-4
2.778303792E1,3.817795368E-4,-7.635590737E-4,4.581354442E-4
2.780184766E1,3.817795368E-4,-1.679830020E-3,4.581354442E-4
2.782065734E1,-2.290677221E-4,-1.068982761E-3,4.581354442E-4
2.783946708E1,-2.290677221E-4,1.527118147E-4,1.374406274E-3
2.785827677E1,7.635590737E-5,1.527118147E-4,1.527118147E-4
2.787708646E1,7.635590737E-5,4.581354442E-4,1.068982761E-3
2.789589620E1,-2.290677221E-4,1.374406274E-3,4.581354442E-4
2.791470589E1,-8.399150101E-4,7.635590737E-4,1.527118147E-4
2.793351563E1,-2.290677221E-4,-1.527118147E-4,1.068982761E-3
2.795232531E1,7.635590737E-5,-1.527118147E-4,1.374406274E-3
2.797113500E1,7.635590737E-5,7.635590737E-4,1.068982761E-3
2.798994474E1,7.635590737E-5,4.581354442E-4,7.635590737E-4
2.800875443E1,7.635590737E-5,1.679830020E-3,1.679830020E-3
2.802756412E1,-1.145338640E-3,1.679830020E-3,4.581354442E-4
2.804637385E1,-1.145338640E-3,1.679830020E-3,1.068982761E-3
2.806518354E1,3.817795368E-4,1.068982761E-3,3.206948051E-3
2.808399328E1,9.926267667E-4,1.068982761E-3,5.344913341E-3
2.810280297E1,-5.344913807E-4,2.901524538E-3,3.206948051E-3
2.812161271E1,-2.290677221E-4,-4.581354442E-4,1.679830020E-3
2.814042240E1,1.908897655E-3,-7.635590737E-4,1.068982761E-3
2.815923208E1,1.603474026E-3,4.123218823E-3,1.068982761E-3
2.817804182E1,7.635590737E-5,6.566607859E-3,1.068982761E-3
2.819685151E1,-2.290677221E-4,3.206948051E-3,2.901524538E-3
2.821566120E1,1.298050396E-3,1.374406274E-3,4.428642802E-3
2.823447094E1,-5.344913807E-4,5.650337320E-3,4.123218823E-3
2.825328063E1,-1.145338640E-3,6.566607859E-3,4.734066315E-3
2.827209036E1,-2.290677221E-4,1.985253533E-3,3.817795310E-3
2.829090005E1,-1.145338640E-3,-7.635590737E-4,3.206948051E-3
2.830970979E1,-5.344913807E-4,-1.374406274E-3,7.635590737E-4
2.832851948E1,3.817795368E-4,-1.985253533E-3,-4.581354442E-4
2.834732922E1,6.872031372E-4,-2.901524538E-3,-7.635590737E-4
2.836613891E1,9.926267667E-4,-1.068982761E-3,-1.527118147E-4
2.838494859E1,9.926267667E-4,2.290677279E-3,1.374406274E-3
2.840375833E1,7.635590737E-5,3.206948051E-3,1.679830020E-3
2.842256802E1,3.817795368E-4,1.374406274E-3,1.679830020E-3
2.844137776E1,1.298050396E-3,7.635590737E-4,1.985253533E-3
2.846018745E1,7.635590737E-5,1.985253533E-3,1.374406274E-3
2.847899714E1,-5.344913807E-4,1.527118147E-4,4.581354442E-4
2.849780688E1,-5.344913807E-4,-3.512371797E-3,1.374406274E-3
2.851661656E1,7.635590737E-5,-4.734066315E-3,1.985253533E-3
2.853542630E1,3.817795368E-4,-3.817795310E-3,1.374406274E-3
2.855423599E1,7.635590737E-5,-7.635590737E-4,2.596100792E-3
2.857304568E1,7.635590737E-5,2.290677279E-3,2.290677279E-3
2.859185542E1,7.635590737E-5,4.428642802E-3,2.290677279E-3
2.861066510E1,3.817795368E-4,3.512371797E-3,1.068982761E-3
2.862947484E1,3.817795368E-4,3.512371797E-3,1.679830020E-3
2.864828453E1,7.635590737E-5,2.596100792E-3,1.679830020E-3
2.866709427E1,7.635590737E-5,1.374406274E-3,4.581354442E-4
2.868590396E1,3.817795368E-4,-1.527118147E-4,1.679830020E-3
2.870471365E1,6.872031372E-4,-1.374406274E-3,1.985253533E-3
2.872352339E1,7.635590737E-5,-1.985253533E-3,2.596100792E-3
2.874233307E1,-2.290677221E-4,-1.374406274E-3,2.290677279E-3
2.876114281E1,7.635590737E-5,-7.635590737E-4,1.374406274E-3
2.877995250E1,7.635590737E-5,4.581354442E-4,4.581354442E-4
2.879876224E1,7.635590737E-5,1.374406274E-3,1.068982761E-3
2.881757193E1,3.817795368E-4,2.290677279E-3,1.985253533E-3
2.883638167E1,3.817795368E-4,1.679830020E-3,1.068982761E-3
2.885519135E1,7.635590737E-5,7.635590737E-4,1.068982761E-3
2.887400104E1,6.872031372E-4,7.635590737E-4,-1.527118147E-4
2.889281078E1,6.872031372E-4,-4.581354442E-4,-7.635590737E-4
2.891162047E1,6.872031372E-4,7.635590737E-4,1.527118147E-4
2.893043021E1,-2.290677221E-4,1.985253533E-3,-1.527118147E-4
2.894923990E1,-8.399150101E-4,1.679830020E-3,7.635590737E-4
2.896804964E1,7.635590737E-5,4.581354442E-4,7.635590737E-4
2.898685932E1,3.817795368E-4,4.581354442E-4,7.635590737E-4
2.900566901E1,6.872031372E-4,4.581354442E-4,7.635590737E-4
2.902447875E1,6.872031372E-4,1.068982761E-3,-4.581354442E-4
2.904328844E1,3.817795368E-4,2.290677279E-3,-1.527118147E-4
2.906209818E1,-2.290677221E-4,2.596100792E-3,-7.635590737E-4
2.908090786E1,-1.450762269E-3,2.290677279E-3,-1.527118147E-4
2.909971760E1,-5.344913807E-4,-7.635590737E-4,1.985253533E-3
2.911852729E1,1.603474026E-3,-7.635590737E-4,2.901524538E-3
2.913733703E1,9.926267667E-4,2.596100792E-3,1.985253533E-3
2.915614672E1,-2.290677221E-4,4.123218823E-3,-1.679830020E-3
2.917495646E1,7.635590737E-5,2.290677279E-3,-1.374406274E-3
2.919376615E1,9.926267667E-4,2.901524538E-3,-1.068982761E-3
2.921257589E1,3.817795368E-4,6.261184346E-3,4.581354442E-4
2.923138557E1,-2.290677221E-4,4.734066315E-3,1.679830020E-3
2.925019526E1,2.214321401E-3,1.679830020E-3,3.206948051E-3
2.926900500E1,1.298050396E-3,5.344913341E-3,3.206948051E-3
2.928781469E1,-8.399150101E-4,8.093725890E-3,2.290677279E-3
2.930662443E1,-5.344913807E-4,3.512371797E-3,1.068982761E-3
2.932543412E1,-5.344913807E-4,-1.527118147E-4,-1.527118147E-4
2.934424385E1,7.635590737E-5,-4.581354442E-4,-1.068982761E-3
2.936305354E1,9.926267667E-4,-7.635590737E-4,-1.679830020E-3
2.938186328E1,6.872031372E-4,-7.635590737E-4,-1.068982761E-3
2.940067297E1,9.926267667E-4,-1.374406274E-3,-1.527118147E-4
2.941948271E1,1.298050396E-3,1.068982761E-3,7.635590737E-4
2.943829240E1,7.635590737E-5,3.512371797E-3,-7.635590737E-4
2.945710214E1,3.817795368E-4,1.679830020E-3,-1.527118147E-4
2.947591182E1,1.298050396E-3,1.985253533E-3,4.581354442E-4
2.949472151E1,7.635590737E-5,2.596100792E-3,1.527118147E-4
2.951353125E1,-5.344913807E-4,-4.581354442E-4,1.527118147E-4
2.953234094E1,7.635590737E-5,-3.512371797E-3,4.581354442E-4
2.955115068E1,3.817795368E-4,-4.428642802E-3,1.527118147E-4
2.956996037E1,6.872031372E-4,-2.596100792E-3,4.581354442E-4
2.958877010E1,6.872031372E-4,-4.581354442E-4,1.527118147E-4
2.960757979E1,7.635590737E-5,4.581354442E-4,4.581354442E-4
2.962638953E1,3.817795368E-4,2.596100792E-3,1.527118147E-4
2.964519922E1,6.872031372E-4,3.512371797E-3,1.527118147E-4
2.966400896E1,3.817795368E-4,2.901524538E-3,-1.527118147E-4
2.968281865E1,-2.290677221E-4,1.374406274E-3,1.527118147E-4
2.970162839E1,-5.344913807E-4,7.635590737E-4,1.527118147E-4
2.972043807E1,-2.290677221E-4,-7.635590737E-4,7.635590737E-4
2.973924776E1,7.635590737E-5,-1.985253533E-3,7.635590737E-4
2.975805750E1,7.635590737E-5,-2.596100792E-3,7.635590737E-4
2.977686719E1,7.635590737E-5,-1.679830020E-3,-1.527118147E-4
2.979567693E1,3.817795368E-4,-1.068982761E-3,-1.527118147E-4
2.981448662E1,-2.290677221E-4,7.635590737E-4,1.527118147E-4
2.983329635E1,3.817795368E-4,1.374406274E-3,7.635590737E-4
2.985210604E1,9.926267667E-4,1.679830020E-3,7.635590737E-4
2.987091578E1,9.926267667E-4,4.581354442E-4,1.068982761E-3
2.988972547E1,3.817795368E-4,-1.068982761E-3,1.374406274E-3
2.990853521E1,7.635590737E-5,-7.635590737E-4,1.068982761E-3
2.992734490E1,3.817795368E-4,-1.679830020E-3,4.581354442E-4
2.994615464E1,7.635590737E-5,-1.374406274E-3,-1.527118147E-4
2.996496432E1,-2.290677221E-4,-7.635590737E-4,1.527118147E-4
2.998377406E1,-2.290677221E-4,-7.635590737E-4,4.581354442E-4
3.000258375E1,3.817795368E-4,-1.068982761E-3,1.679830020E-3
3.002139349E1,3.817795368E-4,-7.635590737E-4,1.068982761E-3
3.004020318E1,6.872031372E-4,1.527118147E-4,1.068982761E-3
3.005901292E1,9.926267667E-4,1.527118147E-4,1.374406274E-3
3.007782260E1,3.817795368E-4,4.581354442E-4,7.635590737E-4
3.009663234E1,-5.344913807E-4,1.374406274E-3,-7.635590737E-4
3.011544203E1,-2.290677221E-4,1.374406274E-3,7.635590737E-4
3.013425177E1,1.298050396E-3,1.527118147E-4,3.206948051E-3
3.015306146E1,9.926267667E-4,1.985253533E-3,3.817795310E-3
3.017187120E1,-5.344913807E-4,2.290677279E-3,1.985253533E-3
3.019068089E1,7.635590737E-5,-1.068982761E-3,1.527118147E-4
3.020949057E1,2.214321401E-3,1.527118147E-4,-1.527118147E-4
3.022830031E1,9.926267667E-4,5.955760833E-3,1.527118147E-4
3.024711000E1,3.817795368E-4,6.261184346E-3,1.527118147E-4
3.026591974E1,6.872031372E-4,2.596100792E-3,2.596100792E-3
3.028472943E1,2.519744914E-3,1.679830020E-3,3.512371797E-3
3.030353917E1,7.635590737E-5,5.955760833E-3,4.123218823E-3
3.032234885E1,3.817795368E-4,4.123218823E-3,3.817795310E-3
3.034115859E1,3.817795368E-4,1.527118147E-4,2.901524538E-3
3.035996828E1,-8.399150101E-4,-1.068982761E-3,7.635590737E-4
3.037877802E1,-2.290677221E-4,-1.374406274E-3,-1.527118147E-4
3.039758771E1,7.635590737E-5,-1.068982761E-3,-1.679830020E-3
3.041639745E1,3.817795368E-4,-1.679830020E-3,-1.374406274E-3
3.043520714E1,6.872031372E-4,-4.581354442E-4,1.527118147E-4
3.045401688E1,9.926267667E-4,1.679830020E-3,7.635590737E-4
3.047282656E1,7.635590737E-5,2.901524538E-3,4.581354442E-4
3.049163630E1,-2.290677221E-4,1.374406274E-3,7.635590737E-4
3.051044599E1,3.817795368E-4,1.527118147E-4,4.581354442E-4
3.052925573E1,7.635590737E-5,1.679830020E-3,-1.527118147E-4
3.054806542E1,-2.290677221E-4,-1.527118147E-4,-4.581354442E-4
3.056687516E1,-2.290677221E-4,-3.206948051E-3,7.635590737E-4
3.058568484E1,9.926267667E-4,-4.734066315E-3,4.581354442E-4
3.060449458E1,7.635590737E-5,-3.817795310E-3,1.374406274E-3
3.062330427E1,6.872031372E-4,-1.985253533E-3,7.635590737E-4
3.064211401E1,3.817795368E-4,-1.527118147E-4,1.068982761E-3
3.066092370E1,7.635590737E-5,2.901524538E-3,1.527118147E-4
3.067973344E1,7.635590737E-5,3.817795310E-3,1.527118147E-4
3.069854312E1,7.635590737E-5,3.206948051E-3,-4.581354442E-4
3.071735287E1,-5.344913807E-4,1.679830020E-3,-1.527118147E-4
3.073616255E1,7.635590737E-5,4.581354442E-4,1.527118147E-4
3.075497224E1,-2.290677221E-4,-1.374406274E-3,4.581354442E-4
3.077378198E1,3.817795368E-4,-3.206948051E-3,7.635590737E-4
3.079259167E1,7.635590737E-5,-3.512371797E-3,7.635590737E-4
3.081140141E1,7.635590737E-5,-2.596100792E-3,4.581354442E-4
3.083021109E1,7.635590737E-5,-1.527118147E-4,7.635590737E-4
3.084902083E1,7.635590737E-5,1.374406274E-3,4.581354442E-4
3.086783052E1,-2.290677221E-4,2.596100792E-3,1.068982761E-3
3.088664026E1,-2.290677221E-4,2.290677279E-3,1.068982761E-3
3.090544995E1,6.872031372E-4,4.581354442E-4,7.635590737E-4
3.092425969E1,7.635590737E-5,-7.635590737E-4,7.635590737E-4
3.094306938E1,-2.290677221E-4,-1.985253533E-3,1.527118147E-4
3.096187912E1,-2.290677221E-4,-1.679830020E-3,4.581354442E-4
3.098068880E1,-2.290677221E-4,-1.679830020E-3,-1.527118147E-4
3.099949854E1,7.635590737E-5,-1.527118147E-4,1.374406274E-3
3.101830823E1,7.635590737E-5,-1.527118147E-4,1.068982761E-3
3.103711797E1,-2.290677221E-4,7.635590737E-4,7.635590737E-4
3.105592766E1,3.817795368E-4,1.374406274E-3,1.068982761E-3
3.107473740E1,7.635590737E-5,1.374406274E-3,7.635590737E-4
3.109354708E1,-2.290677221E-4,4.581354442E-4,4.581354442E-4
3.111235682E1,-2.290677221E-4,-4.581354442E-4,1.679830020E-3
3.113116651E1,3.817795368E-4,-4.581354442E-4,2.596100792E-3
3.114997625E1,7.635590737E-5,1.527118147E-4,2.290677279E-3
3.116878594E1,7.635590737E-5,4.581354442E-4,2.290677279E-3
3.118759568E1,3.817795368E-4,1.527118147E-4,1.679830020E-3
3.120640537E1,-2.290677221E-4,1.679830020E-3,1.527118147E-4
3.122521510E1,-8.399150101E-4,2.596100792E-3,7.635590737E-4
3.124402479E1,3.817795368E-4,1.679830020E-3,3.206948051E-3
3.126283453E1,1.298050396E-3,1.374406274E-3,5.650337320E-3
3.128164422E1,-2.290677221E-4,3.512371797E-3,4.428642802E-3
3.130045391E1,-8.399150101E-4,3.206948051E-3,1.679830020E-3
3.131926365E1,1.298050396E-3,-1.527118147E-4,1.527118147E-4
3.133807339E1,3.817795368E-4,3.512371797E-3,-4.581354442E-4
3.135688307E1,3.817795368E-4,6.872031838E-3,1.374406274E-3
3.137569276E1,-8.399150101E-4,3.512371797E-3,1.985253533E-3
3.139450250E1,9.926267667E-4,-4.581354442E-4,5.039489828E-3
3.141331219E1,9.926267667E-4,3.206948051E-3,5.344913341E-3
3.143212193E1,-1.450762269E-3,7.177455351E-3,4.734066315E-3
3.145093162E1,-2.290677221E-4,3.206948051E-3,3.206948051E-3
3.146974135E1,-1.756185899E-3,1.527118147E-4,1.374406274E-3
3.148855104E1,-8.399150101E-4,-1.985253533E-3,4.581354442E-4
3.150736078E1,7.635590737E-5,-1.679830020E-3,-4.581354442E-4
3.152617047E1,7.635590737E-5,-1.985253533E-3,-1.679830020E-3
3.154498021E1,7.635590737E-5,-1.068982761E-3,-4.581354442E-4
3.156378990E1,9.926267667E-4,1.374406274E-3,2.596100792E-3
3.158259964E1,3.817795368E-4,3.206948051E-3,2.290677279E-3
3.160140932E1,-8.399150101E-4,1.374406274E-3,1.985253533E-3
3.162021906E1,1.298050396E-3,-1.527118147E-4,1.985253533E-3
3.163902875E1,1.298050396E-3,1.068982761E-3,1.679830020E-3
3.165783849E1,7.635590737E-5,2.290677279E-3,1.068982761E-3
3.167664818E1,-8.399150101E-4,-1.068982761E-3,7.635590737E-4
3.169545792E1,7.635590737E-5,-4.734066315E-3,1.068982761E-3
3.171426760E1,6.872031372E-4,-3.512371797E-3,1.985253533E-3
3.173307734E1,3.817795368E-4,-1.068982761E-3,2.290677279E-3
3.175188703E1,-2.290677221E-4,1.068982761E-3,1.985253533E-3
3.177069677E1,6.872031372E-4,3.206948051E-3,1.068982761E-3
3.178950646E1,3.817795368E-4,4.123218823E-3,1.527118147E-4
3.180831620E1,6.872031372E-4,4.123218823E-3,7.635590737E-4
3.182712589E1,7.635590737E-5,3.206948051E-3,4.581354442E-4
3.184593563E1,-5.344913807E-4,1.679830020E-3,1.068982761E-3
3.186474531E1,-2.290677221E-4,1.527118147E-4,7.635590737E-4
3.188355505E1,7.635590737E-5,-1.068982761E-3,1.374406274E-3
3.190236474E1,6.872031372E-4,-1.985253533E-3,1.374406274E-3
3.192117443E1,3.817795368E-4,-1.985253533E-3,4.581354442E-4
3.193998417E1,6.872031372E-4,-4.581354442E-4,1.527118147E-4
3.195879391E1,6.872031372E-4,1.068982761E-3,1.527118147E-4
3.197760359E1,-2.290677221E-4,1.985253533E-3,1.527118147E-4
3.199641333E1,3.817795368E-4,2.596100792E-3,1.527118147E-4
3.201522302E1,7.635590737E-5,1.985253533E-3,4.581354442E-4
3.203403276E1,3.817795368E-4,4.581354442E-4,-1.527118147E-4
3.205284245E1,6.872031372E-4,-4.581354442E-4,-1.527118147E-4
3.207165214E1,6.872031372E-4,-1.068982761E-3,1.527118147E-4
3.209046188E1,-2.290677221E-4,-1.068982761E-3,-7.635590737E-4
3.210927156E1,7.635590737E-5,-2.290677279E-3,1.527118147E-4
3.212808130E1,3.817795368E-4,-1.068982761E-3,7.635590737E-4
3.214689099E1,6.872031372E-4,4.581354442E-4,1.985253533E-3
3.216570073E1,6.872031372E-4,4.581354442E-4,7.635590737E-4
3.218451042E1,6.872031372E-4,1.068982761E-3,4.581354442E-4
3.220332016E1,7.635590737E-5,1.679830020E-3,1.527118147E-4
3.222212984E1,-8.399150101E-4,2.596100792E-3,-7.635590737E-4
3.224093958E1,-1.145338640E-3,1.068982761E-3,1.527118147E-4
3.225974927E1,3.817795368E-4,-1.374406274E-3,2.901524538E-3
3.227855901E1,1.908897655E-3,-1.527118147E-4,4.123218823E-3
3.229736870E1,9.926267667E-4,2.596100792E-3,1.068982761E-3
3.231617844E1,-5.344913807E-4,2.901524538E-3,-1.679830020E-3
3.233498812E1,1.603474026E-3,4.581354442E-4,-1.374406274E-3
3.235379787E1,7.635590737E-5,5.344913341E-3,-4.581354442E-4
3.237260755E1,7.635590737E-5,6.872031838E-3,4.581354442E-4
3.239141729E1,6.872031372E-4,3.817795310E-3,1.985253533E-3
3.241022698E1,2.519744914E-3,2.901524538E-3,3.512371797E-3
3.242903672E1,9.926267667E-4,5.650337320E-3,3.512371797E-3
3.244784641E1,-1.145338640E-3,5.650337320E-3,3.206948051E-3
3.246665615E1,-2.290677221E-4,1.068982761E-3,1.679830020E-3
3.248546583E1,-8.399150101E-4,-1.374406274E-3,1.068982761E-3
3.250427557E1,3.817795368E-4,-7.635590737E-4,-4.581354442E-4
3.252308526E1,6.872031372E-4,-1.068982761E-3,-1.068982761E-3
3.254189500E1,6.872031372E-4,-1.374406274E-3,-1.374406274E-3
3.256070469E1,9.926267667E-4,-1.527118147E-4,-1.527118147E-4
3.257951443E1,1.603474026E-3,1.985253533E-3,1.068982761E-3
3.259832412E1,7.635590737E-5,3.206948051E-3,1.374406274E-3
3.261713385E1,-2.290677221E-4,1.068982761E-3,1.527118147E-4
3.263594354E1,9.926267667E-4,-4.581354442E-4,4.581354442E-4
3.265475328E1,6.872031372E-4,1.068982761E-3,4.581354442E-4
3.267356297E1,-2.290677221E-4,4.581354442E-4,-4.581354442E-4
3.269237271E1,7.635590737E-5,-4.123218823E-3,-7.635590737E-4
3.271118240E1,3.817795368E-4,-5.039489828E-3,1.527118147E-4
3.272999208E1,6.872031372E-4,-2.290677279E-3,1.068982761E-3
3.274880182E1,6.872031372E-4,4.581354442E-4,1.068982761E-3
3.276761151E1,7.635590737E-5,1.068982761E-3,7.635590737E-4
3.278642125E1,3.817795368E-4,2.901524538E-3,4.581354442E-4
3.280523094E1,6.872031372E-4,3.512371797E-3,4.581354442E-4
3.282404068E1,9.926267667E-4,2.596100792E-3,4.581354442E-4
3.284285037E1,7.635590737E-5,2.290677279E-3,4.581354442E-4
3.286166010E1,7.635590737E-5,1.068982761E-3,4.581354442E-4
3.288046979E1,3.817795368E-4,-1.068982761E-3,7.635590737E-4
3.289927953E1,3.817795368E-4,-2.901524538E-3,1.527118147E-4
3.291808922E1,3.817795368E-4,-3.512371797E-3,7.635590737E-4
3.293689896E1,3.817795368E-4,-3.817795310E-3,4.581354442E-4
3.295570865E1,7.635590737E-5,-1.068982761E-3,4.581354442E-4
3.297451839E1,6.872031372E-4,4.581354442E-4,-1.527118147E-4
3.299332807E1,3.817795368E-4,1.374406274E-3,7.635590737E-4
3.301213781E1,7.635590737E-5,1.985253533E-3,1.068982761E-3
3.303094750E1,6.872031372E-4,7.635590737E-4,1.068982761E-3
3.304975724E1,3.817795368E-4,-1.527118147E-4,1.068982761E-3
3.306856693E1,3.817795368E-4,-1.679830020E-3,4.581354442E-4
3.308737667E1,3.817795368E-4,-1.985253533E-3,1.527118147E-4
3.310618635E1,7.635590737E-5,-1.679830020E-3,4.581354442E-4
3.312499609E1,7.635590737E-5,-1.068982761E-3,1.527118147E-4
3.314380578E1,-5.344913807E-4,-1.068982761E-3,4.581354442E-4
3.316261552E1,3.817795368E-4,-1.068982761E-3,1.679830020E-3
3.318142521E1,6.872031372E-4,1.527118147E-4,1.985253533E-3
3.320023495E1,6.872031372E-4,4.581354442E-4,1.374406274E-3
3.321904464E1,9.926267667E-4,1.527118147E-4,1.374406274E-3
3.323785432E1,6.872031372E-4,1.374406274E-3,1.068982761E-3
3.325666406E1,-8.399150101E-4,1.374406274E-3,-1.527118147E-4
3.327547375E1,-2.290677221E-4,1.679830020E-3,1.374406274E-3
3.329428349E1,7.635590737E-5,1.068982761E-3,2.901524538E-3
3.331309318E1,3.817795368E-4,1.985253533E-3,3.512371797E-3
3.333190292E1,-5.344913807E-4,3.512371797E-3,1.374406274E-3
3.335071260E1,-2.290677221E-4,1.527118147E-4,1.527118147E-4
3.336952234E1,1.908897655E-3,-4.581354442E-4,-1.527118147E-4
3.338833203E1,3.817795368E-4,4.734066315E-3,4.581354442E-4
3.340714177E1,7.635590737E-5,7.482878864E-3,1.527118147E-4
3.342595146E1,-5.344913807E-4,4.123218823E-3,2.596100792E-3
3.344476120E1,2.519744914E-3,2.596100792E-3,3.817795310E-3
3.346357089E1,7.635590737E-5,5.344913341E-3,4.123218823E-3
3.348238063E1,-8.399150101E-4,4.428642802E-3,3.512371797E-3
3.350119031E1,-2.290677221E-4,4.581354442E-4,2.290677279E-3
3.352000005E1,-8.399150101E-4,-1.679830020E-3,4.581354442E-4
3.353880974E1,7.635590737E-5,-1.374406274E-3,1.527118147E-4
3.355761948E1,3.817795368E-4,-1.374406274E-3,-1.068982761E-3
3.357642917E1,3.817795368E-4,-1.679830020E-3,-1.068982761E-3
3.359523885E1,9.926267667E-4,-4.581354442E-4,-1.527118147E-4
3.361404859E1,1.298050396E-3,1.985253533E-3,1.068982761E-3
3.363285828E1,7.635590737E-5,3.817795310E-3,1.068982761E-3
3.365166802E1,7.635590737E-5,1.068982761E-3,1.068982761E-3
3.367047771E1,9.926267667E-4,-7.635590737E-4,4.581354442E-4
3.368928745E1,1.298050396E-3,4.581354442E-4,-1.527118147E-4
3.370809714E1,-1.756185899E-3,1.527118147E-4,-4.581354442E-4
3.372690688E1,-2.672456671E-3,-3.206948051E-3,-1.068982761E-3
3.374571656E1,-1.450762269E-3,-5.955760833E-3,-4.581354442E-4
3.376452630E1,7.635590737E-5,-3.817795310E-3,7.635590737E-4
3.378333599E1,6.872031372E-4,-1.068982761E-3,1.374406274E-3
3.380214573E1,3.817795368E-4,1.068982761E-3,7.635590737E-4
3.382095542E1,6.872031372E-4,3.206948051E-3,1.374406274E-3
3.383976516E1,3.817795368E-4,4.428642802E-3,1.068982761E-3
3.385857484E1,3.817795368E-4,4.428642802E-3,1.068982761E-3
3.387738453E1,-2.290677221E-4,2.901524538E-3,7.635590737E-4
3.389619427E1,7.635590737E-5,7.635590737E-4,1.527118147E-4
3.391500396E1,6.872031372E-4,-1.985253533E-3,7.635590737E-4
3.393381370E1,6.872031372E-4,-3.512371797E-3,1.068982761E-3
3.395262339E1,6.872031372E-4,-3.206948051E-3,1.374406274E-3
3.397143313E1,3.817795368E-4,-2.901524538E-3,1.068982761E-3
3.399024281E1,3.817795368E-4,-7.635590737E-4,1.374406274E-3
3.400905255E1,7.635590737E-5,1.374406274E-3,1.068982761E-3
3.402786224E1,7.635590737E-5,2.290677279E-3,1.679830020E-3
3.404667198E1,3.817795368E-4,1.985253533E-3,1.679830020E-3
3.406548167E1,6.872031372E-4,4.581354442E-4,1.374406274E-3
3.408429141E1,3.817795368E-4,-7.635590737E-4,1.374406274E-3
3.410310109E1,3.817795368E-4,-2.596100792E-3,1.374406274E-3
3.412191078E1,3.817795368E-4,-1.679830020E-3,1.374406274E-3
3.414072052E1,-2.290677221E-4,-1.374406274E-3,1.679830020E-3
3.415953021E1,7.635590737E-5,-1.068982761E-3,7.635590737E-4
3.417833995E1,-2.290677221E-4,4.581354442E-4,1.985253533E-3
3.419714964E1,-2.290677221E-4,1.679830020E-3,1.679830020E-3
3.421595938E1,3.817795368E-4,1.374406274E-3,1.068982761E-3
3.423476906E1,3.817795368E-4,1.679830020E-3,1.068982761E-3
3.425357880E1,7.635590737E-5,1.068982761E-3,1.985253533E-3
3.427238849E1,7.635590737E-5,1.527118147E-4,2.290677279E-3
3.429119823E1,3.817795368E-4,-1.527118147E-4,2.901524538E-3
3.431000792E1,7.635590737E-5,4.581354442E-4,2.901524538E-3
3.432881766E1,3.817795368E-4,7.635590737E-4,2.596100792E-3
3.434762734E1,3.817795368E-4,1.985253533E-3,1.679830020E-3
3.436643708E1,-1.145338640E-3,3.512371797E-3,1.068982761E-3
3.438524677E1,-8.399150101E-4,2.290677279E-3,1.985253533E-3
3.440405646E1,-2.290677221E-4,7.635590737E-4,4.428642802E-3
3.442286620E1,1.603474026E-3,1.374406274E-3,5.650337320E-3
3.444167589E1,-2.290677221E-4,4.123218823E-3,3.206948051E-3
3.446048563E1,-2.290677221E-4,3.206948051E-3,1.527118147E-4
3.447929531E1,1.298050396E-3,1.985253533E-3,-4.581354442E-4
3.449810505E1,3.817795368E-4,4.123218823E-3,1.068982761E-3
3.451691474E1,-5.344913807E-4,5.650337320E-3,2.596100792E-3
3.453572448E1,-5.344913807E-4,1.374406274E-3,3.817795310E-3
3.455453417E1,6.872031372E-4,4.581354442E-4,5.955760833E-3
3.457334391E1,6.872031372E-4,5.344913341E-3,5.344913341E-3
3.459215359E1,-2.061609412E-3,7.177455351E-3,4.123218823E-3
3.461096328E1,-1.450762269E-3,2.596100792E-3,1.985253533E-3
3.462977302E1,-1.450762269E-3,-7.635590737E-4,-1.527118147E-4
3.464858271E1,3.817795368E-4,-1.679830020E-3,-1.068982761E-3
3.466739245E1,6.872031372E-4,-7.635590737E-4,-4.581354442E-4
3.468620214E1,6.872031372E-4,-1.679830020E-3,-1.527118147E-4
3.470501188E1,1.298050396E-3,-1.068982761E-3,7.635590737E-4
3.472382156E1,1.298050396E-3,1.374406274E-3,2.290677279E-3
3.474263130E1,7.635590737E-5,3.206948051E-3,1.374406274E-3
3.476144099E1,3.817795368E-4,1.679830020E-3,1.068982761E-3
3.478025073E1,9.926267667E-4,7.635590737E-4,7.635590737E-4
3.479906042E1,7.635590737E-5,3.512371797E-3,7.635590737E-4
3.481787010E1,-8.399150101E-4,2.596100792E-3,1.527118147E-4
3.483667984E1,-2.290677221E-4,-1.679830020E-3,-1.527118147E-4
3.485548953E1,3.817795368E-4,-2.901524538E-3,1.527118147E-4
3.487429927E1,6.872031372E-4,-1.985253533E-3,7.635590737E-4
3.489310896E1,3.817795368E-4,-1.527118147E-4,1.068982761E-3
3.491191870E1,-2.290677221E-4,1.985253533E-3,1.374406274E-3
3.493072839E1,-2.290677221E-4,3.206948051E-3,-1.527118147E-4
3.494953813E1,3.817795368E-4,3.206948051E-3,-4.581354442E-4
3.496834781E1,3.817795368E-4,3.206948051E-3,-7.635590737E-4
3.498715755E1,7.635590737E-5,1.985253533E-3,-4.581354442E-4
3.500596724E1,7.635590737E-5,1.068982761E-3,-1.068982761E-3
3.502477693E1,6.872031372E-4,-4.581354442E-4,1.527118147E-4
3.504358667E1,7.635590737E-5,-2.290677279E-3,-1.527118147E-4
3.506239635E1,6.872031372E-4,-2.901524538E-3,-4.581354442E-4
3.508120609E1,6.872031372E-4,-1.679830020E-3,-1.527118147E-4
3.510001578E1,7.635590737E-5,1.527118147E-4,1.527118147E-4
3.511882552E1,7.635590737E-5,4.581354442E-4,1.527118147E-4
3.513763521E1,7.635590737E-5,1.068982761E-3,1.527118147E-4
3.515644490E1,7.635590737E-5,7.635590737E-4,1.527118147E-4
3.517525464E1,3.817795368E-4,4.581354442E-4,4.581354442E-4
3.519406432E1,3.817795368E-4,-4.581354442E-4,1.527118147E-4
3.521287406E1,6.872031372E-4,-4.581354442E-4,4.581354442E-4
3.523168375E1,3.817795368E-4,-1.527118147E-4,4.581354442E-4
3.525049349E1,7.635590737E-5,-4.581354442E-4,1.527118147E-4
3.526930318E1,-2.290677221E-4,-7.635590737E-4,7.635590737E-4
3.528811292E1,3.817795368E-4,-1.374406274E-3,7.635590737E-4
3.530692260E1,7.635590737E-5,-1.068982761E-3,1.068982761E-3
3.532573229E1,9.926267667E-4,1.527118147E-4,1.374406274E-3
3.534454203E1,6.872031372E-4,7.635590737E-4,7.635590737E-4
3.536335172E1,9.926267667E-4,1.679830020E-3,1.527118147E-4
3.538216146E1,-8.399150101E-4,4.123218823E-3,-4.581354442E-4
3.540097115E1,-1.145338640E-3,3.512371797E-3,-7.635590737E-4
3.541978089E1,7.635590737E-5,1.679830020E-3,2.290677279E-3
3.543859057E1,1.603474026E-3,1.679830020E-3,4.123218823E-3
3.545740026E1,6.872031372E-4,3.817795310E-3,2.596100792E-3
3.547621000E1,-2.290677221E-4,2.290677279E-3,-7.635590737E-4
3.549501969E1,1.298050396E-3,4.581354442E-4,-4.581354442E-4
3.551382943E1,1.298050396E-3,3.512371797E-3,-1.527118147E-4
3.553263912E1,-5.344913807E-4,6.261184346E-3,-1.527118147E-4
3.555144885E1,7.635590737E-5,3.817795310E-3,1.679830020E-3
3.557025854E1,1.908897655E-3,1.985253533E-3,3.206948051E-3
3.558906828E1,1.298050396E-3,3.512371797E-3,3.206948051E-3
3.560787797E1,-1.756185899E-3,5.955760833E-3,3.817795310E-3
3.562668766E1,-8.399150101E-4,2.290677279E-3,2.596100792E-3
3.564549740E1,-1.145338640E-3,-1.679830020E-3,7.635590737E-4
3.566430708E1,-2.290677221E-4,-1.068982761E-3,-1.068982761E-3
3.568311682E1,6.872031372E-4,-4.581354442E-4,-7.635590737E-4
3.570192651E1,6.872031372E-4,-1.068982761E-3,-1.374406274E-3
3.572073620E1,1.298050396E-3,-1.374406274E-3,-1.068982761E-3
3.573954594E1,1.908897655E-3,1.068982761E-3,1.068982761E-3
3.575835562E1,6.872031372E-4,3.206948051E-3,1.374406274E-3
3.577716536E1,-1.145338640E-3,1.985253533E-3,7.635590737E-4
3.579597505E1,7.635590737E-5,-7.635590737E-4,1.068982761E-3
3.581478479E1,9.926267667E-4,-1.527118147E-4,4.581354442E-4
3.583359448E1,-2.290677221E-4,7.635590737E-4,-1.527118147E-4
3.585240417E1,-5.344913807E-4,-7.635590737E-4,1.527118147E-4
3.587121391E1,7.635590737E-5,-3.817795310E-3,4.581354442E-4
3.589002359E1,3.817795368E-4,-3.512371797E-3,1.068982761E-3
3.590883333E1,3.817795368E-4,-1.985253533E-3,1.374406274E-3
3.592764302E1,7.635590737E-5,-1.527118147E-4,4.581354442E-4
3.594645271E1,-2.290677221E-4,1.679830020E-3,4.581354442E-4
3.596526245E1,7.635590737E-5,2.596100792E-3,-1.527118147E-4
3.598407214E1,-2.290677221E-4,3.817795310E-3,-1.527118147E-4
3.600288188E1,7.635590737E-5,2.290677279E-3,1.527118147E-4
3.602169156E1,7.635590737E-5,7.635590737E-4,-1.527118147E-4
3.604050130E1,-2.290677221E-4,-1.374406274E-3,-1.527118147E-4
3.605931099E1,6.872031372E-4,-2.290677279E-3,1.527118147E-4
3.607812068E1,3.817795368E-4,-3.512371797E-3,4.581354442E-4
3.609693042E1,3.817795368E-4,-3.512371797E-3,4.581354442E-4
3.611574010E1,3.817795368E-4,-2.290677279E-3,1.527118147E-4
3.613454984E1,-2.290677221E-4,-4.581354442E-4,1.527118147E-4
3.615335953E1,-2.290677221E-4,1.374406274E-3,7.635590737E-4
3.617216927E1,7.635590737E-5,1.068982761E-3,7.635590737E-4
3.619097896E1,6.872031372E-4,4.581354442E-4,7.635590737E-4
3.620978865E1,6.872031372E-4,-4.581354442E-4,7.635590737E-4
3.622859839E1,3.817795368E-4,-1.374406274E-3,7.635590737E-4
3.624740807E1,3.817795368E-4,-1.679830020E-3,4.581354442E-4
3.626621781E1,7.635590737E-5,-1.374406274E-3,1.527118147E-4
3.628502750E1,3.817795368E-4,-1.374406274E-3,1.527118147E-4
3.630383724E1,6.872031372E-4,4.581354442E-4,7.635590737E-4
3.632264693E1,7.635590737E-5,7.635590737E-4,1.374406274E-3
3.634145662E1,7.635590737E-5,1.068982761E-3,7.635590737E-4
3.636026635E1,3.817795368E-4,1.068982761E-3,7.635590737E-4
3.637907604E1,3.817795368E-4,4.581354442E-4,1.068982761E-3
3.639788578E1,3.817795368E-4,7.635590737E-4,1.985253533E-3
3.641669547E1,7.635590737E-5,1.374406274E-3,1.679830020E-3
3.643550516E1,3.817795368E-4,1.374406274E-3,1.068982761E-3
3.645431490E1,9.926267667E-4,1.068982761E-3,1.374406274E-3
3.647312458E1,-2.290677221E-4,2.290677279E-3,4.581354442E-4
3.649193432E1,-8.399150101E-4,1.985253533E-3,1.527118147E-4
3.651074401E1,3.817795368E-4,1.985253533E-3,1.985253533E-3
3.652955375E1,6.872031372E-4,1.985253533E-3,3.206948051E-3
3.654836344E1,7.635590737E-5,3.817795310E-3,2.901524538E-3
3.656717313E1,-8.399150101E-4,2.596100792E-3,1.068982761E-3
3.658598287E1,9.926267667E-4,-1.374406274E-3,4.581354442E-4
3.660479255E1,1.908897655E-3,7.635590737E-4,1.527118147E-4
3.662360229E1,6.872031372E-4,6.566607859E-3,1.374406274E-3
3.664241198E1,6.872031372E-4,5.650337320E-3,1.068982761E-3
3.666122172E1,9.926267667E-4,2.596100792E-3,2.596100792E-3
3.668003141E1,1.603474026E-3,2.901524538E-3,3.206948051E-3
3.669884109E1,-8.399150101E-4,5.344913341E-3,3.512371797E-3
3.671765083E1,-5.344913807E-4,1.679830020E-3,3.206948051E-3
3.673646052E1,-5.344913807E-4,-1.374406274E-3,7.635590737E-4
3.675527026E1,-2.290677221E-4,-2.596100792E-3,-1.527118147E-4
3.677407995E1,3.817795368E-4,-2.290677279E-3,-1.527118147E-4
3.679288969E1,7.635590737E-5,-2.596100792E-3,-4.581354442E-4
3.681169938E1,1.298050396E-3,-2.596100792E-3,-1.679830020E-3
3.683050912E1,1.298050396E-3,1.527118147E-4,1.527118147E-4
3.684931880E1,1.298050396E-3,2.901524538E-3,1.374406274E-3
3.686812849E1,-2.290677221E-4,3.817795310E-3,1.374406274E-3
3.688693823E1,-5.344913807E-4,-1.527118147E-4,4.581354442E-4
3.690574792E1,3.817795368E-4,-1.068982761E-3,-1.527118147E-4
3.692455766E1,3.817795368E-4,4.581354442E-4,1.527118147E-4
3.694336734E1,-2.290677221E-4,-1.527118147E-4,-4.581354442E-4
3.696217708E1,7.635590737E-5,-2.901524538E-3,1.527118147E-4
3.698098677E1,3.817795368E-4,-3.512371797E-3,7.635590737E-4
3.699979651E1,7.635590737E-5,-1.679830020E-3,1.068982761E-3
3.701860620E1,3.817795368E-4,-4.581354442E-4,1.679830020E-3
3.703741589E1,-2.290677221E-4,2.596100792E-3,1.374406274E-3
3.705622562E1,-2.290677221E-4,3.206948051E-3,1.527118147E-4
3.707503531E1,-2.290677221E-4,3.512371797E-3,-1.527118147E-4
3.709384505E1,-2.290677221E-4,2.596100792E-3,1.527118147E-4
3.711265474E1,-5.344913807E-4,1.679830020E-3,4.581354442E-4
3.713146448E1,-2.290677221E-4,-7.635590737E-4,1.527118147E-4
3.715027417E1,7.635590737E-5,-1.374406274E-3,1.527118147E-4
3.716908391E1,7.635590737E-5,-2.901524538E-3,1.374406274E-3
3.718789359E1,-2.290677221E-4,-3.512371797E-3,1.374406274E-3
3.720670333E1,7.635590737E-5,-2.290677279E-3,7.635590737E-4
3.722551302E1,7.635590737E-5,-7.635590737E-4,1.068982761E-3
3.724432276E1,7.635590737E-5,1.068982761E-3,7.635590737E-4
3.726313245E1,7.635590737E-5,1.374406274E-3,7.635590737E-4
3.728194219E1,3.817795368E-4,4.581354442E-4,7.635590737E-4
3.730075188E1,6.872031372E-4,1.527118147E-4,1.374406274E-3
3.731956162E1,9.926267667E-4,-4.581354442E-4,1.679830020E-3
3.733837130E1,3.817795368E-4,-1.068982761E-3,1.679830020E-3
3.735718104E1,-2.290677221E-4,-1.679830020E-3,1.068982761E-3
3.737599073E1,-5.344913807E-4,-2.290677279E-3,1.374406274E-3
3.739480047E1,-5.344913807E-4,-7.635590737E-4,1.374406274E-3
3.741361016E1,-5.344913807E-4,-4.581354442E-4,1.374406274E-3
3.743241990E1,-2.290677221E-4,4.581354442E-4,1.374406274E-3
3.745122958E1,3.817795368E-4,1.068982761E-3,1.374406274E-3
3.747003932E1,3.817795368E-4,1.985253533E-3,1.679830020E-3
3.748884901E1,3.817795368E-4,2.290677279E-3,1.374406274E-3
3.750765875E1,7.635590737E-5,7.635590737E-4,1.679830020E-3
3.752646844E1,3.817795368E-4,-1.527118147E-4,2.901524538E-3
3.754527818E1,6.872031372E-4,7.635590737E-4,3.512371797E-3
3.756408787E1,7.635590737E-5,1.068982761E-3,2.596100792E-3
3.758289760E1,7.635590737E-5,7.635590737E-4,2.290677279E-3
3.760170729E1,-2.290677221E-4,2.596100792E-3,1.068982761E-3
3.762051703E1,-1.145338640E-3,2.901524538E-3,4.581354442E-4
3.763932672E1,-8.399150101E-4,2.290677279E-3,1.985253533E-3
3.765813646E1,7.635590737E-5,7.635590737E-4,5.039489828E-3
