"Time (s)","Acceleration x (m/s^2)","Acceleration y (m/s^2)","Acceleration z (m/s^2)"
2.974562600E-2,-4.468596458E0,-3.722035646E0,7.714460373E0
4.855510500E-2,-4.398007870E0,-3.804588079E0,7.808976650E0
6.736375100E-2,-4.444668293E0,-3.777070522E0,7.905886173E0
8.617520900E-2,-4.432703972E0,-3.789034605E0,7.856832981E0
1.049846360E-1,-4.435096741E0,-3.857230186E0,7.971688747E0
1.237941150E-1,-4.615755081E0,-3.836891174E0,8.014759064E0
1.426035940E-1,-4.553541660E0,-3.769891977E0,7.988438606E0
1.614130740E-1,-4.430311203E0,-3.790230989E0,7.957331657E0
1.802225010E-1,-4.372883320E0,-3.777070522E0,7.902296543E0
1.990319800E-1,-4.462614059E0,-3.803391695E0,7.795815945E0
2.178414590E-1,-4.624129772E0,-3.826123476E0,7.890332699E0
2.366509380E-1,-4.570291042E0,-3.852444410E0,7.954938889E0
2.554603650E-1,-4.506881237E0,-3.781856298E0,7.886743546E0
2.742698440E-1,-4.387240410E0,-3.747160196E0,7.909475327E0
2.930793240E-1,-4.394418716E0,-3.670589924E0,7.908278942E0
3.118888030E-1,-4.429114819E0,-3.646661758E0,7.910671711E0
3.306982300E-1,-4.291527271E0,-3.572484255E0,7.814958572E0
3.495077090E-1,-4.112065792E0,-3.456432343E0,7.802994728E0
3.683171880E-1,-4.114458561E0,-3.332005501E0,7.639086246E0
3.871266150E-1,-4.280759811E0,-3.116651535E0,7.753942013E0
4.059360940E-1,-4.207778454E0,-3.023331404E0,8.117650986E0
4.247455740E-1,-4.272384644E0,-3.023331404E0,7.676175117E0
4.435550530E-1,-4.944767952E0,-3.619144201E0,7.272984505E0
4.623644800E-1,-5.424529076E0,-3.960121393E0,8.243273735E0
4.811739590E-1,-5.656632900E0,-3.769891977E0,7.037291527E0
4.999834380E-1,-5.618347645E0,-3.561716557E0,9.090332985E0
5.187928650E-1,-4.990231514E0,-3.206382275E0,9.018548965E0
5.376023440E-1,-4.703093052E0,-3.787838221E0,8.581858635E0
5.564118240E-1,-4.524827480E0,-3.674179077E0,8.522037506E0
5.752212510E-1,-5.529813290E0,-3.682554007E0,7.490731239E0
5.940307300E-1,-6.003592014E0,-4.335794449E0,7.487142086E0
6.128402090E-1,-6.145965099E0,-4.356133461E0,8.111668587E0
6.316496360E-1,-6.344569206E0,-5.184050083E0,8.303094864E0
6.504591150E-1,-5.444868088E0,-4.644468784E0,8.048258781E0
6.692685940E-1,-6.874579430E0,-3.445664644E0,7.739584923E0
6.880780220E-1,-8.252845764E0,-1.010967612E0,8.495717049E0
7.068875010E-1,-4.374079704E0,-1.886740685E0,6.912864685E0
7.256969800E-1,-4.140779495E0,-3.577269793E0,8.935996056E0
7.445064070E-1,-6.252445698E0,-3.963710785E0,8.888139725E0
7.633158860E-1,-7.008577347E0,-2.455035925E0,7.814958572E0
7.821253130E-1,-5.267798901E0,-1.409372568E0,6.762116909E0
8.009347920E-1,-2.440679073E0,-1.329213023E0,6.545566559E0
8.197442720E-1,9.571290761E-2,-1.320838094E0,7.165307522E0
8.385536990E-1,4.402793646E-1,-1.304088354E0,7.182057381E0
8.573631780E-1,-1.048056364E0,-1.552941918E0,6.997809887E0
8.761726570E-1,-1.878365755E0,-2.268395901E0,6.750152588E0
8.949820840E-1,-2.878565550E0,-3.328416348E0,7.276573658E0
9.137915630E-1,-4.345366001E0,-4.356133461E0,7.988438606E0
9.326010420E-1,-6.148357868E0,-4.621737003E0,9.014959335E0
9.514104690E-1,-6.339783669E0,-3.714857101E0,9.753145218E0
9.702199490E-1,-6.245266914E0,-3.658625841E0,9.066405296E0
9.890293760E-1,-6.859025955E0,-3.955335855E0,8.732605934E0
1.007838855E0,-6.599404812E0,-3.902693748E0,7.235895634E0
1.026648334E0,-6.331408501E0,-3.791427374E0,7.682157040E0
1.045457761E0,-6.458228111E0,-3.260220766E0,7.639086246E0
1.064267240E0,-6.728617191E0,-2.672782898E0,7.077969551E0
1.083076667E0,-6.385247231E0,-2.402393818E0,6.831508636E0
1.101886147E0,-4.811966419E0,-2.914458036E0,7.513463020E0
1.120695626E0,-3.716053486E0,-4.149154663E0,8.723034859E0
1.139505053E0,-3.413361549E0,-4.626522541E0,9.962516785E0
1.158314532E0,-3.041277647E0,-4.048655987E0,9.859625816E0
1.177123959E0,-3.377469063E0,-2.919243574E0,8.297112465E0
1.195933438E0,-4.101297855E0,-2.993421078E0,7.779066563E0
1.214742865E0,-4.101297855E0,-3.979264021E0,8.431110382E0
1.233552344E0,-3.433700562E0,-4.334598064E0,8.943174362E0
1.252361824E0,-3.074777126E0,-3.554538012E0,8.885746956E0
1.271171251E0,-3.605983734E0,-2.888136864E0,8.646464348E0
1.289980730E0,-3.474378586E0,-2.919243574E0,8.549555779E0
1.308790157E0,-3.397808075E0,-3.321237803E0,8.379665375E0
1.327599636E0,-3.645465374E0,-3.805784464E0,8.717052460E0
1.346409063E0,-3.702893019E0,-3.652643681E0,8.697910309E0
1.365218542E0,-3.828516245E0,-3.227917671E0,9.018548965E0
1.384027969E0,-2.461018085E0,-2.623729944E0,8.805587769E0
1.402837449E0,-2.091326952E0,-2.793620348E0,8.142775536E0
1.421646876E0,-2.894119024E0,-3.733999729E0,9.069993973E0
1.440456355E0,-3.327219963E0,-4.005585194E0,9.309276581E0
1.459265834E0,-2.798406124E0,-4.071387768E0,8.635697365E0
1.478075261E0,-2.489732027E0,-3.549752474E0,8.498109818E0
1.496884688E0,-2.475374937E0,-3.375076294E0,8.715856552E0
1.515694167E0,-2.528017044E0,-3.427718401E0,9.005388260E0
1.534503594E0,-2.361716032E0,-3.704089403E0,9.129815102E0
1.553313074E0,-1.654636860E0,-2.867797852E0,8.669196129E0
1.572122553E0,-2.019542217E0,-3.403790236E0,8.289934158E0
1.590931980E0,-2.372483730E0,-4.335794449E0,9.655039787E0
1.609741459E0,-2.260020971E0,-4.569094658E0,9.081958771E0
1.628550886E0,-1.881955028E0,-4.980660439E0,8.382058144E0
1.647360365E0,-1.271785259E0,-4.762913704E0,8.354539871E0
1.666169792E0,-8.207381964E-1,-4.447061062E0,8.754141808E0
1.684979272E0,-3.756731451E-1,-4.472185612E0,8.993423462E0
1.703788699E0,-2.524427772E-1,-4.588237286E0,8.648857117E0
1.722598126E0,-7.106683254E-1,-4.569094658E0,8.555537224E0
1.741407605E0,-5.838487148E-1,-4.341776848E0,8.556734085E0
1.760217032E0,-3.182454109E-1,-4.405186653E0,8.751749039E0
1.779026511E0,-5.264209956E-2,-4.771288395E0,8.700303078E0
1.797835938E0,2.297109663E-1,-4.859822750E0,8.518448830E0
1.816645417E0,3.278166950E-1,-4.882554531E0,8.526823044E0
1.835454844E0,-3.948157281E-2,-4.795216560E0,8.629714966E0
1.854264324E0,-3.804588020E-1,-4.801198483E0,8.700303078E0
1.873073751E0,-5.288137794E-1,-4.567898273E0,8.706285477E0
1.891883230E0,-9.702895880E-1,-3.704089403E0,8.794819832E0
1.910692657E0,-1.770688742E-1,-3.004188776E0,8.957531929E0
1.929502084E0,-2.285145670E-1,-3.396611691E0,9.273384094E0
1.948311563E0,-4.797609448E-1,-3.475574970E0,9.122636795E0
1.967120990E0,-7.142575383E-1,-3.281756163E0,8.772088051E0
1.985930469E0,-1.208375454E0,-3.822534084E0,8.928817749E0
2.004739897E0,-1.622333765E0,-4.017549038E0,8.989834785E0
2.023549376E0,-1.645065546E0,-4.113262177E0,8.981459618E0
2.042358803E0,-1.670190215E0,-4.153940201E0,9.001798630E0
2.061168230E0,-1.576870084E0,-3.822534084E0,8.608179092E0
2.079977709E0,-1.627119422E0,-3.973282099E0,8.809176445E0
2.098787136E0,-1.642672777E0,-3.669393539E0,9.203991890E0
2.117596615E0,-1.624726534E0,-3.531806231E0,8.868997574E0
2.136406042E0,-1.515853167E0,-3.732803345E0,8.955139160E0
2.155215522E0,-1.422533035E0,-4.043870449E0,8.762516975E0
2.174024949E0,-1.056431174E0,-4.001996040E0,9.209974289E0
2.192834376E0,-7.214360237E-1,-3.568894863E0,9.019744873E0
2.211643855E0,-6.125625968E-1,-3.716053486E0,9.006584167E0
2.230453282E0,-6.125625968E-1,-3.982853174E0,9.154939651E0
2.249262761E0,-1.253839016E0,-4.584648132E0,8.315058708E0
2.268072188E0,-4.498506486E-1,-4.621737003E0,1.028554821E1
2.286881615E0,-1.196411345E-2,-3.761517286E0,9.433703423E0
2.305691094E0,-1.052841991E-1,-3.132204771E0,9.095118523E0
2.324500522E0,4.893322289E-1,-2.597409010E0,8.860622406E0
2.343310001E0,1.036092162E0,-2.909672260E0,9.190832138E0
2.362119428E0,1.311266780E0,-3.284149170E0,9.330811501E0
2.380928855E0,7.561319470E-1,-3.425325632E0,9.150154114E0
2.399738334E0,3.206382394E-1,-3.863212109E0,9.038887978E0
2.418547761E0,1.328016520E-1,-3.686143398E0,8.797212601E0
2.437357188E0,2.739782035E-1,-3.171686411E0,8.836693764E0
2.456166667E0,1.507478207E-1,-3.830909014E0,9.303294182E0
2.474976094E0,-3.708875179E-2,-4.785645485E0,9.389435768E0
2.493785522E0,-1.091127157E0,-5.661418438E0,8.761320114E0
2.512595001E0,-2.133201361E0,-5.955735683E0,8.699107170E0
2.531404428E0,-2.928814888E0,-4.941178799E0,9.232706070E0
2.550213855E0,-2.980260611E0,-3.877569199E0,1.004028416E1
2.569023334E0,-2.742174864E0,-3.468396425E0,9.973284721E0
2.587832761E0,-1.074377418E0,-3.460021496E0,9.586843491E0
2.606642188E0,2.057827413E-1,-3.466003656E0,9.221938133E0
2.625451667E0,8.614161611E-1,-3.152543783E0,8.787641525E0
2.644261094E0,1.099501967E0,-2.650051117E0,8.688339233E0
2.663070522E0,-1.040877849E-1,-2.679961443E0,9.525827408E0
2.681880001E0,-1.213161111E0,-3.077169895E0,9.810572624E0
2.700689428E0,-1.561316729E0,-3.522234917E0,9.462417603E0
2.719498855E0,-1.387837172E0,-3.748356581E0,9.309276581E0
2.738308334E0,-9.427721500E-1,-3.718446493E0,9.263813019E0
2.757117761E0,-7.465606928E-1,-3.518645763E0,9.152546883E0
2.775927188E0,-1.032503009E0,-3.314059258E0,9.334401131E0
2.794736615E0,-1.214357495E0,-3.220739365E0,9.741181374E0
2.813546094E0,-1.226321578E0,-3.327219963E0,9.466006279E0
2.832355522E0,-1.143769264E0,-3.442075491E0,9.092725754E0
2.851164949E0,-9.535398483E-1,-3.418147087E0,9.138189316E0
2.869974428E0,-8.147560954E-1,-3.278167009E0,9.224330902E0
2.888783855E0,-7.549355626E-1,-3.093919754E0,9.305686951E0
2.907593282E0,-7.836494446E-1,-2.965903759E0,9.353543282E0
2.926402709E0,-7.549355626E-1,-2.985046148E0,9.330811501E0
2.945212188E0,-8.494520187E-1,-2.976671457E0,9.363115311E0
2.964021615E0,-9.080761671E-1,-2.931207657E0,9.357132912E0
2.982831042E0,-9.260223508E-1,-2.964707375E0,9.399007797E0
3.001640522E0,-8.446664214E-1,-3.041277647E0,9.367900848E0
3.020449949E0,-8.721838593E-1,-3.144168854E0,9.579665184E0
3.039259376E0,-9.367900491E-1,-3.217149973E0,9.774680138E0
3.058068803E0,-8.183453679E-1,-3.333201885E0,9.750752449E0
3.076878282E0,-6.221339107E-1,-3.406183004E0,9.534201622E0
3.095687709E0,-6.065805554E-1,-3.513859987E0,9.743574142E0
3.114497136E0,-7.393822074E-1,-3.474378586E0,1.010249710E1
3.133306563E0,-9.990034699E-1,-3.381058455E0,1.002712345E1
3.152116042E0,-1.118644595E0,-3.214757204E0,1.000798035E1
3.170925469E0,-1.529013634E0,-2.895315409E0,1.084068298E1
3.189734897E0,-8.937192559E-1,-3.231507063E0,1.050449181E1
3.208544324E0,-9.068797827E-1,-3.414557934E0,1.056550884E1
3.227353803E0,-2.536391914E-1,-3.297309637E0,1.047697353E1
3.246163230E0,-7.142575383E-1,-2.801995277E0,1.036570740E1
3.264972657E0,-4.163511395E-1,-2.359323025E0,9.897911072E0
3.283782084E0,-4.007977843E-1,-1.887937069E0,9.226723671E0
3.302591563E0,-6.640082598E-1,-1.524227977E0,9.000602722E0
3.321400990E0,-8.817551732E-1,-1.575673699E0,8.902496338E0
3.340210417E0,-7.405785918E-1,-1.416550994E0,8.066205025E0
3.359019844E0,-8.925228715E-1,-1.438086390E0,8.409575462E0
3.377829324E0,-7.621139884E-1,-1.275374413E0,8.928817749E0
3.396638751E0,-1.081555843E0,-1.056431174E0,9.385847092E0
3.415448178E0,-1.618744493E0,-8.243274093E-1,9.135796547E0
3.434257605E0,-2.120040894E0,-8.159525394E-1,8.042277336E0
3.453067032E0,-1.936989903E0,-7.345965505E-1,7.092326164E0
3.471876511E0,-1.544566989E0,-2.991028428E-1,6.867401123E0
3.490685938E0,-8.482556343E-1,1.674975902E-1,6.726224422E0
3.509495365E0,-6.305087805E-1,4.474578202E-1,7.091129780E0
3.528304792E0,-5.168496966E-1,2.871387303E-1,8.690732002E0
3.547114219E0,-1.044467092E0,-1.310070395E0,1.188275719E1
3.565923699E0,-2.258824587E0,-3.242274761E0,1.422891998E1
3.584733126E0,-3.101098061E0,-4.509274483E0,1.342971706E1
3.603542553E0,-2.760120869E0,-4.529613495E0,1.169731331E1
3.622351980E0,-2.549552441E0,-2.913261652E0,9.930213928E0
3.641161407E0,-2.292324066E0,-1.170090318E0,8.769695282E0
3.659970886E0,-1.313659668E0,-7.704889178E-1,8.501698494E0
3.678780313E0,-2.189432681E-1,-9.894321561E-1,8.821140289E0
3.697589740E0,-1.794617027E-1,-1.130608678E0,8.913264275E0
3.716399167E0,-5.347958803E-1,-1.099501967E0,8.565108299E0
3.735208594E0,-1.070788145E0,-1.161715388E0,8.301898003E0
3.754018074E0,-1.397408366E0,-1.433300734E0,8.779266357E0
3.772827501E0,-1.823330879E0,-1.713261008E0,9.650253296E0
3.791636928E0,-2.214557409E0,-1.891526341E0,1.050568771E1
3.810446355E0,-2.323430777E0,-2.037488461E0,1.107159042E1
3.829255782E0,-2.478964329E0,-1.987239242E0,1.151904774E1
3.848065209E0,-2.561516523E0,-1.791027784E0,1.095912743E1
3.866874688E0,-2.233700037E0,-1.722832322E0,1.005823040E1
3.885684115E0,-1.781456470E0,-1.785045743E0,9.431310654E0
3.904493542E0,-1.512263894E0,-1.811366796E0,8.997013092E0
3.923302969E0,-1.976471543E0,-1.813759565E0,9.805787086E0
3.942112397E0,-3.328416348E0,-1.759921074E0,9.650253296E0
3.960921876E0,-4.378865242E0,-1.767099500E0,1.047218800E1
3.979731303E0,-4.991427898E0,-2.201396942E0,1.129292679E1
3.998540730E0,-4.472185612E0,-2.721835852E0,1.002712345E1
4.017350157E0,-3.178864956E0,-2.985046148E0,9.940981865E0
4.036159584E0,-2.770888567E0,-2.317448616E0,8.652446747E0
4.054969011E0,-2.894119024E0,-1.661815286E0,8.779266357E0
4.073778438E0,-3.310470104E0,-1.497906923E0,9.475577354E0
4.092587917E0,-3.250649452E0,-1.867598057E0,9.817750931E0
4.111397344E0,-2.953939438E0,-2.718246460E0,1.017667484E1
4.130206772E0,-2.374876499E0,-3.623929977E0,9.662218094E0
4.149016199E0,-1.624726534E0,-4.231706619E0,8.932407379E0
4.167825626E0,-1.598405480E0,-4.478167534E0,9.615557671E0
4.186635053E0,-1.811366796E0,-4.237689018E0,9.820143700E0
4.205444532E0,-1.981257200E0,-4.021138668E0,9.324830055E0
4.224253959E0,-1.819741607E0,-4.084548473E0,8.534002304E0
4.243063386E0,-1.891526341E0,-4.336990833E0,8.232506752E0
4.261872813E0,-2.202593327E0,-4.646861553E0,8.551948547E0
4.280682240E0,-2.532802820E0,-4.869394302E0,8.700303078E0
4.299491667E0,-2.453839540E0,-5.030909538E0,8.513663292E0
4.318301094E0,-2.218146563E0,-4.789234638E0,7.843672752E0
4.337110522E0,-2.679961443E0,-4.412364960E0,8.249256134E0
4.355920001E0,-2.456232548E0,-4.258028030E0,8.355736732E0
4.374729428E0,-2.298306227E0,-4.085744858E0,8.128418922E0
4.393538855E0,-2.370090723E0,-3.923032761E0,7.984848976E0
4.412348282E0,-2.439482689E0,-3.834498405E0,7.994420528E0
4.431157709E0,-2.638087034E0,-3.785445452E0,8.154739380E0
4.449967136E0,-2.452643156E0,-4.028316975E0,7.563712597E0
4.468776563E0,-1.944168448E0,-4.019941807E0,8.846264839E0
4.487585990E0,-1.817348838E0,-3.873979807E0,9.555737495E0
4.506395417E0,-1.757528186E0,-4.407579422E0,7.594819069E0
4.525204897E0,-1.171286702E0,-4.579862595E0,6.267998695E0
4.544014324E0,-2.321037948E-1,-4.187439442E0,5.956932068E0
4.562823751E0,6.819544435E-1,-3.340380430E0,6.535995007E0
4.581633178E0,1.032503009E0,-2.452643156E0,6.778866768E0
4.600442605E0,6.568298340E-1,-2.377269268E0,6.297909260E0
4.619252032E0,7.417750359E-2,-2.763710260E0,6.540780544E0
4.638061459E0,-1.450050473E0,-3.579662561E0,8.008777618E0
4.656870886E0,-2.970689297E0,-4.523631096E0,8.800801277E0
4.675680313E0,-3.913461447E0,-4.853840828E0,8.103293419E0
4.694489740E0,-3.558127165E0,-5.095515728E0,7.532605648E0
4.713299219E0,-2.976671457E0,-5.565705299E0,7.569694519E0
4.732108647E0,-2.483749866E0,-5.797809124E0,7.618747234E0
4.750918074E0,-2.199003935E0,-5.929414749E0,7.728816986E0
4.769727501E0,-2.301895380E0,-6.028716564E0,7.907082558E0
4.788536928E0,-2.982653379E0,-5.991627693E0,8.047062874E0
4.807346355E0,-3.475574970E0,-5.789434433E0,7.828119278E0
4.826155782E0,-3.954139471E0,-5.053641319E0,7.686942577E0
4.844965209E0,-4.405186653E0,-4.267599106E0,8.110472679E0
4.863774636E0,-4.433900356E0,-3.903890133E0,8.627322197E0
4.882584063E0,-3.479164124E0,-3.795016766E0,9.265008926E0
4.901393490E0,-3.042474031E0,-3.754338741E0,9.412167549E0
4.920202917E0,-3.317648649E0,-3.778266907E0,9.772287369E0
4.939012344E0,-3.544966698E0,-3.836891174E0,9.728020668E0
4.957821824E0,-3.726821184E0,-3.521038532E0,1.056072235E1
4.976631199E0,-4.155136585E0,-2.860619545E0,1.054995537E1
4.995440678E0,-4.188635826E0,-2.267199516E0,9.767501831E0
5.014250105E0,-3.852444410E0,-1.903490424E0,9.430113792E0
5.033059532E0,-3.420539856E0,-1.691725612E0,9.180064201E0
5.051868959E0,-3.250649452E0,-1.423729420E0,8.880961418E0
5.070678386E0,-3.321237803E0,-1.185643673E0,8.696713448E0
5.089487813E0,-3.573680639E0,-1.000199914E0,8.370093346E0
5.108297240E0,-3.620340586E0,-9.439685345E-1,8.879764557E0
5.127106667E0,-4.065405846E0,-9.846464992E-1,8.829515457E0
5.145916094E0,-4.869394302E0,-1.128215909E0,9.016156197E0
5.164725522E0,-5.531009674E0,-1.209571838E0,9.553344727E0
5.183534949E0,-5.350351334E0,-1.128215909E0,1.005823040E1
5.202344376E0,-4.723432064E0,-8.901300430E-1,1.004985523E1
5.221153803E0,-4.097708702E0,-8.219345808E-1,9.698110580E0
5.239963230E0,-3.826123476E0,-9.188438654E-1,9.361918449E0
5.258772657E0,-3.791427374E0,-1.064806104E0,9.160921097E0
5.277582084E0,-3.890729666E0,-1.184447169E0,8.691927910E0
5.296391511E0,-3.863212109E0,-1.179661512E0,8.528019905E0
5.315200938E0,-3.766302824E0,-1.052842021E0,8.695517540E0
5.334010417E0,-3.745963812E0,-8.398807645E-1,8.833105087E0
5.352819792E0,-3.720839262E0,-6.652047038E-1,8.885746956E0
5.371629219E0,-3.735196114E0,-6.340979934E-1,8.609375954E0
5.390438699E0,-3.793820381E0,-5.443671346E-1,8.672785759E0
5.409248074E0,-3.907479286E0,-4.534398913E-1,8.914461136E0
5.428057553E0,-4.091726780E0,-4.031906128E-1,9.188439369E0
5.446866980E0,-4.204189301E0,-5.407779217E-1,9.255437851E0
5.465676407E0,-4.278367043E0,-7.848458290E-1,9.194420815E0
5.484485834E0,-4.149154663E0,-8.901300430E-1,9.213563919E0
5.503295261E0,-4.143172264E0,-8.709874153E-1,9.096315384E0
5.522104688E0,-4.335794449E0,-7.262216806E-1,9.126225471E0
5.540914115E0,-4.476971149E0,-6.245267391E-1,9.244669914E0
5.559723542E0,-4.398007870E0,-5.371887088E-1,9.012566566E0
5.578532969E0,-4.285545349E0,-4.223332107E-1,8.624929428E0
5.597342397E0,-4.230510235E0,-3.433700502E-1,8.452646255E0
5.616151824E0,-4.253242016E0,-2.775674164E-1,8.563912392E0
5.634961251E0,-4.387240410E0,-3.002992272E-1,8.751749039E0
5.653770678E0,-4.485345840E0,-4.283152521E-1,8.965906143E0
5.672580105E0,-4.754538536E0,-5.335994363E-1,8.757730484E0
5.691389532E0,-4.863411903E0,-3.816552162E-1,8.476573944E0
5.710198959E0,-4.892126083E0,-2.297109663E-1,8.434700012E0
5.729008386E0,-4.867001057E0,-2.548356056E-1,8.725427628E0
5.747817813E0,-4.547559261E0,-5.419743061E-1,8.586644173E0
5.766627240E0,-4.206582069E0,-8.721838593E-1,8.220541954E0
5.785436667E0,-3.865604877E0,-1.301695466E0,8.158329010E0
5.804246094E0,-3.566502094E0,-1.588834286E0,8.166703224E0
5.823055522E0,-3.583251953E0,-1.543370605E0,8.091329575E0
5.841864949E0,-3.999603033E0,-1.280160069E0,8.632107735E0
5.860674376E0,-4.244867325E0,-1.225125194E0,8.992227554E0
5.879483803E0,-4.541577339E0,-1.235892892E0,9.104690552E0
5.898293178E0,-4.857429981E0,-1.123430252E0,9.352347374E0
5.917102657E0,-4.624129772E0,-1.278963685E0,9.553344727E0
5.935912084E0,-4.429114819E0,-1.381855130E0,9.669396400E0
5.954721511E0,-4.415954113E0,-1.069591761E0,9.101100922E0
5.973530938E0,-4.682754040E0,-5.036891699E-1,8.965906143E0
5.992340365E0,-5.045266628E0,-1.914258115E-2,8.975478172E0
6.011149740E0,-5.212764263E0,-1.316052489E-2,8.714659691E0
6.029959167E0,-4.907679081E0,-7.609176040E-1,8.385646820E0
6.048768594E0,-4.609772682E0,-9.367900491E-1,7.933403492E0
6.067578022E0,-4.267599106E0,-7.429714203E-1,8.147561073E0
6.086387449E0,-4.219742775E0,-6.640082598E-1,8.766105652E0
6.105196876E0,-4.356133461E0,-7.202396393E-1,8.944371223E0
6.124006303E0,-4.667200565E0,-7.513462901E-1,8.853444099E0
6.142815730E0,-4.731806755E0,-8.973084688E-1,8.982656479E0
6.161625157E0,-4.699503899E0,-1.066002488E0,8.940781593E0
6.180434584E0,-4.840680122E0,-1.252642632E0,8.909674644E0
6.199244011E0,-4.798805714E0,-1.220339537E0,9.058030128E0
6.218053438E0,-4.928018093E0,-9.726824164E-1,9.024530411E0
6.236862865E0,-4.838287354E0,-8.231309652E-1,8.813961983E0
6.255672292E0,-4.794020176E0,-6.735795736E-1,8.666803360E0
6.274481719E0,-4.899304390E0,-5.623133183E-1,8.562715530E0
6.293291147E0,-4.912465096E0,-5.431707501E-1,8.560322762E0
6.312100574E0,-4.861019135E0,-6.436693072E-1,8.567501068E0
6.330910001E0,-4.796412945E0,-7.465606928E-1,8.470592499E0
6.349719428E0,-4.764110088E0,-7.429714203E-1,8.432307243E0
6.368528803E0,-4.822733879E0,-6.939185858E-1,8.567501068E0
6.387338230E0,-4.967499733E0,-6.927221417E-1,8.595019341E0
6.406147657E0,-5.221138954E0,-7.896314859E-1,8.542376518E0
6.424957084E0,-5.401797295E0,-7.776673436E-1,8.455039024E0
6.443766511E0,-5.440082073E0,-8.039883971E-1,8.440681458E0
6.462575938E0,-5.450850010E0,-7.908278704E-1,8.498109818E0
6.481385365E0,-5.430510998E0,-6.795616150E-1,8.484949112E0
6.500194792E0,-5.352744102E0,-4.749752879E-1,8.444271088E0
6.519004219E0,-5.335994720E0,-3.888336718E-1,8.585447311E0
6.537813647E0,-5.322834015E0,-4.043870270E-1,8.445467949E0
6.556623074E0,-5.337191105E0,-3.672982752E-1,8.421539307E0
6.575432501E0,-5.216353416E0,-2.572284341E-1,7.965706348E0
6.594241928E0,-4.482953072E0,-1.304088384E-1,6.918846607E0
6.613051355E0,-3.797409534E0,-2.584248483E-1,6.385247231E0
6.631860782E0,-4.264009953E0,-1.366301775E0,9.138189316E0
6.650670157E0,-5.498706341E0,-1.905883193E0,9.300901413E0
6.669479584E0,-6.625725746E0,-1.465603828E0,8.666803360E0
6.688289011E0,-6.410371780E0,-1.865205288E0,8.823533058E0
6.707098438E0,-5.387440205E0,-2.092523336E0,8.366504669E0
6.725907865E0,-4.938786030E0,-1.006181955E0,8.435895920E0
6.744717292E0,-4.784449100E0,-1.866401732E-1,8.670392990E0
6.763526719E0,-4.963910580E0,-2.404786795E-1,8.679964066E0
6.782336147E0,-5.051248550E0,-6.675975323E-1,8.635697365E0
6.801145574E0,-5.406582832E0,-7.800601721E-1,8.615358353E0
6.819955001E0,-5.326423168E0,-3.996013701E-1,8.419146538E0
6.838764428E0,-4.947160721E0,-1.172483116E-1,8.188239098E0
6.857573803E0,-4.749752998E0,-3.792623878E-1,8.268398285E0
6.876383230E0,-4.753342152E0,-8.530412912E-1,8.752944946E0
6.895192657E0,-4.868197441E0,-1.123430252E0,8.812766075E0
6.914002084E0,-4.790431023E0,-1.155733347E0,8.622536659E0
6.932811511E0,-4.687539577E0,-1.045663476E0,8.437092781E0
6.951620938E0,-4.547559261E0,-9.487541914E-1,8.495717049E0
6.970430365E0,-4.861019135E0,-8.255237937E-1,8.656036377E0
6.989239792E0,-4.902893543E0,-8.183453679E-1,8.811569214E0
7.008049219E0,-4.977071285E0,-8.099704385E-1,8.742177963E0
7.026858594E0,-4.944767952E0,-8.578268886E-1,8.620143890E0
7.045668074E0,-4.935196877E0,-8.925228715E-1,8.494520187E0
7.064477449E0,-4.910071850E0,-9.176474810E-1,8.525627136E0
7.083286876E0,-4.913661480E0,-8.578268886E-1,8.602197647E0
7.102096303E0,-4.857429981E0,-8.159525394E-1,8.645268440E0
7.120905730E0,-4.872983456E0,-7.776673436E-1,8.530412674E0
7.139715157E0,-4.843072891E0,-8.015955687E-1,8.508877754E0
7.158524584E0,-4.907679081E0,-8.709874153E-1,8.517251968E0
7.177334011E0,-4.913661480E0,-9.379864931E-1,8.596215248E0
7.196143438E0,-4.868197441E0,-9.678967595E-1,8.591429710E0
7.214952813E0,-4.839483738E0,-9.978070259E-1,8.578269005E0
7.233762240E0,-4.800002098E0,-1.063609719E0,8.567501068E0
7.252571667E0,-4.810770035E0,-1.136590719E0,8.620143890E0
7.271381094E0,-4.828716278E0,-1.137787223E0,8.690732002E0
7.290190522E0,-4.844269276E0,-1.068395257E0,8.670392990E0
7.308999949E0,-4.794020176E0,-1.034895778E0,8.626125336E0
7.327809376E0,-4.709074974E0,-1.001396298E0,8.673981667E0
7.346618803E0,-4.636094093E0,-1.031306505E0,8.683553696E0
7.365428230E0,-4.630111694E0,-9.930213690E-1,8.678768158E0
7.384237605E0,-4.632504463E0,-9.655039310E-1,8.678768158E0
7.403047032E0,-4.627718925E0,-9.798609018E-1,8.723034859E0
7.421856459E0,-4.666004181E0,-1.058824062E0,8.715856552E0
7.440665886E0,-4.677968502E0,-1.142572761E0,8.693124771E0
7.459475313E0,-4.634897232E0,-1.138983607E0,8.712266922E0
7.478284740E0,-4.569094658E0,-1.176072359E0,8.732605934E0
7.497094167E0,-4.643272400E0,-1.185643673E0,8.727820396E0
7.515903542E0,-4.646861553E0,-1.158126116E0,8.720642090E0
7.534712969E0,-4.642076015E0,-1.101894855E0,8.677571297E0
7.553522397E0,-4.573880672E0,-1.103091240E0,8.666803360E0
7.572331824E0,-4.565505505E0,-1.086341500E0,8.682356834E0
7.591141251E0,-4.596612453E0,-1.051645517E0,8.706285477E0
7.609950678E0,-4.649254322E0,-1.028913736E0,8.712266922E0
7.628760105E0,-4.667200565E0,-1.044467092E0,8.670392990E0
7.647569480E0,-4.713860512E0,-1.061216831E0,8.628518105E0
7.666378907E0,-4.734199524E0,-1.124626637E0,8.626125336E0
7.685188334E0,-4.721039295E0,-1.134197950E0,8.638090134E0
7.703997761E0,-4.725824833E0,-1.121037364E0,8.644071579E0
7.722807188E0,-4.676771641E0,-1.134197950E0,8.636893272E0
7.741616615E0,-4.632504463E0,-1.165304661E0,8.663214684E0
7.760425990E0,-4.650450706E0,-1.142572761E0,8.685946465E0
7.779235417E0,-4.634897232E0,-1.138983607E0,8.695517540E0
7.798044844E0,-4.571487427E0,-1.110269666E0,8.691927910E0
7.816854272E0,-4.570291042E0,-1.123430252E0,8.638090134E0
7.835663699E0,-4.717449665E0,-1.243071318E0,8.569893837E0
7.854473126E0,-4.837090969E0,-1.360319614E0,8.583054543E0
7.873282553E0,-4.883750916E0,-1.344766378E0,8.604590416E0
7.892091928E0,-4.791627407E0,-1.332802176E0,8.659625053E0
7.910901355E0,-4.673182487E0,-1.319641709E0,8.699107170E0
7.929710782E0,-4.555934429E0,-1.288534999E0,8.687142372E0
7.948520209E0,-4.535595417E0,-1.258624673E0,8.677571297E0
7.967329636E0,-4.677968502E0,-1.182054400E0,8.702695847E0
7.986139063E0,-4.599005222E0,-1.304088354E0,8.662017822E0
8.004948438E0,-4.390829563E0,-1.440479279E0,8.654839516E0
8.023757865E0,-4.258028030E0,-1.476371527E0,8.776873589E0
8.042567292E0,-4.377668858E0,-1.304088354E0,8.836693764E0
8.061376719E0,-4.472185612E0,-1.276570916E0,8.798408508E0
8.080186147E0,-4.467400074E0,-1.354337573E0,8.719446182E0
8.098995522E0,-4.548755646E0,-1.326820135E0,8.653642654E0
8.117804949E0,-4.603790760E0,-1.250249863E0,8.683553696E0
8.136614376E0,-4.673182487E0,-1.172483087E0,8.702695847E0
8.155423803E0,-4.752145767E0,-1.148554921E0,8.662017822E0
8.174233230E0,-4.794020176E0,-1.143769264E0,8.589036942E0
8.193042657E0,-4.766502857E0,-1.168893814E0,8.548358917E0
8.211852084E0,-4.738985062E0,-1.198804140E0,8.556734085E0
8.230661459E0,-4.731806755E0,-1.233500123E0,8.575876236E0
8.249470886E0,-4.692325115E0,-1.269392371E0,8.624929428E0
8.268280313E0,-4.671986103E0,-1.244267821E0,8.677571297E0
8.287089740E0,-4.639683247E0,-1.200000525E0,8.720642090E0
8.305899115E0,-4.590630054E0,-1.209571838E0,8.700303078E0
8.324708542E0,-4.532006264E0,-1.255035520E0,8.740981102E0
8.343517969E0,-4.485345840E0,-1.320838094E0,8.766105652E0
8.362327397E0,-4.447061062E0,-1.373480201E0,8.756534576E0
8.381136824E0,-4.393222332E0,-1.345962763E0,8.714659691E0
8.399946251E0,-4.453042984E0,-1.313659668E0,8.726624489E0
8.418755626E0,-4.588237286E0,-1.276570916E0,8.745766640E0
8.437565053E0,-4.628915310E0,-1.275374413E0,8.699107170E0
8.456374480E0,-4.618147850E0,-1.282552958E0,8.660821915E0
8.475183907E0,-4.600201607E0,-1.295713425E0,8.683553696E0
8.493993334E0,-4.600201607E0,-1.278963685E0,8.727820396E0
8.512802709E0,-4.561916351E0,-1.235892892E0,8.673981667E0
8.531612136E0,-4.570291042E0,-1.240678549E0,8.639286041E0
8.550421563E0,-4.596612453E0,-1.255035520E0,8.665607452E0
8.569230990E0,-4.587040901E0,-1.245464206E0,8.702695847E0
8.588040417E0,-4.490131855E0,-1.217946768E0,8.711071014E0
8.606849792E0,-4.402793884E0,-1.211964726E0,8.719446182E0
8.625659219E0,-4.392025948E0,-1.215553880E0,8.736195564E0
8.644468647E0,-4.441078663E0,-1.185643673E0,8.736195564E0
8.663278074E0,-4.475774765E0,-1.152144074E0,8.731410027E0
8.682087449E0,-4.488935471E0,-1.179661512E0,8.745766640E0
8.700896876E0,-4.554738045E0,-1.197607756E0,8.772088051E0
8.719706303E0,-4.570291042E0,-1.152144074E0,8.769695282E0
8.738515730E0,-4.584648132E0,-1.168893814E0,8.706285477E0
8.757325157E0,-4.626522541E0,-1.215553880E0,8.651249886E0
8.776134532E0,-4.632504463E0,-1.244267821E0,8.642875671E0
8.794943959E0,-4.654039860E0,-1.234696507E0,8.700303078E0
8.813753386E0,-4.652843475E0,-1.240678549E0,8.666803360E0
8.832562813E0,-4.655236244E0,-1.238285661E0,8.623732567E0
8.851372188E0,-4.627718925E0,-1.221535921E0,8.671588898E0
8.870181615E0,-4.674378872E0,-1.195214868E0,8.707481384E0
8.888991042E0,-4.634897232E0,-1.148554921E0,8.693124771E0
8.907800469E0,-4.666004181E0,-1.123430252E0,8.688339233E0
8.926609897E0,-4.697110653E0,-1.153340459E0,8.664410591E0
8.945419272E0,-4.674378872E0,-1.182054400E0,8.653642654E0
8.964228699E0,-4.658825874E0,-1.158126116E0,8.660821915E0
8.983038126E0,-4.620540619E0,-1.103091240E0,8.684749603E0
9.001847553E0,-4.622933388E0,-1.057627559E0,8.719446182E0
9.020656980E0,-4.599005222E0,-1.077966571E0,8.721838951E0
9.039466355E0,-4.590630054E0,-1.063609719E0,8.707481384E0
9.058275782E0,-4.573880672E0,-1.083948612E0,8.678768158E0
9.077085209E0,-4.582255363E0,-1.142572761E0,8.669196129E0
9.095894584E0,-4.631308079E0,-1.190429211E0,8.695517540E0
9.114704011E0,-4.639683247E0,-1.200000525E0,8.713463783E0
9.133513438E0,-4.632504463E0,-1.180858016E0,8.675178528E0
9.152322865E0,-4.608576298E0,-1.176072359E0,8.673981667E0
9.171132292E0,-4.627718925E0,-1.154536963E0,8.688339233E0
9.189941667E0,-4.667200565E0,-1.130608678E0,8.690732002E0
9.208751094E0,-4.662415028E0,-1.148554921E0,8.651249886E0
9.227560522E0,-4.731806755E0,-1.186840057E0,8.646464348E0
9.246369949E0,-4.808377266E0,-1.133001566E0,8.633303642E0
9.265179324E0,-4.802394867E0,-1.069591761E0,8.657232285E0
9.283988751E0,-4.864608288E0,-1.051645517E0,8.657232285E0
9.302798178E0,-4.858626366E0,-9.942178130E-1,8.616554260E0
9.321607605E0,-4.796412945E0,-1.012163997E0,8.548358917E0
9.340416980E0,-4.753342152E0,-1.093519926E0,8.551948547E0
9.359226407E0,-4.731806755E0,-1.237089276E0,8.622536659E0
9.378035834E0,-4.711467743E0,-1.286142230E0,8.641678810E0
9.396845261E0,-4.600201607E0,-1.284945726E0,8.677571297E0
9.415654636E0,-4.588237286E0,-1.271785259E0,8.688339233E0
9.434464063E0,-4.600201607E0,-1.244267821E0,8.684749603E0
9.453273490E0,-4.570291042E0,-1.197607756E0,8.718249321E0
9.472082917E0,-4.576273441E0,-1.168893814E0,8.751749039E0
9.490892292E0,-4.578666210E0,-1.182054400E0,8.739784241E0
9.509701719E0,-4.559523582E0,-1.189232826E0,8.668000221E0
9.528511147E0,-4.536791801E0,-1.216750264E0,8.672785759E0
9.547320574E0,-4.555934429E0,-1.261017561E0,8.693124771E0
9.566129949E0,-4.558327198E0,-1.295713425E0,8.690732002E0
9.584939376E0,-4.528416634E0,-1.298106313E0,8.711071014E0
9.603748803E0,-4.503292084E0,-1.281356573E0,8.738588333E0
9.622558230E0,-4.505684853E0,-1.216750264E0,8.760123253E0
9.641367605E0,-4.535595417E0,-1.158126116E0,8.748159409E0
9.660177032E0,-4.588237286E0,-1.152144074E0,8.719446182E0
9.678986459E0,-4.600201607E0,-1.196411371E0,8.663214684E0
9.697795886E0,-4.677968502E0,-1.229910851E0,8.669196129E0
9.716605261E0,-4.715056896E0,-1.269392371E0,8.652446747E0
9.735414688E0,-4.688735962E0,-1.275374413E0,8.657232285E0
9.754224115E0,-4.710271358E0,-1.280160069E0,8.688339233E0
9.773033490E0,-4.713860512E0,-1.289731383E0,8.683553696E0
9.791842917E0,-4.657629490E0,-1.310070395E0,8.670392990E0
9.810652344E0,-4.601397991E0,-1.319641709E0,8.663214684E0
9.829461772E0,-4.516452789E0,-1.317248821E0,8.691927910E0
9.848271147E0,-4.502095699E0,-1.311266780E0,8.743373871E0
9.867080574E0,-4.472185612E0,-1.300499082E0,8.773283958E0
9.885890001E0,-4.383651257E0,-1.280160069E0,8.787641525E0
9.904699428E0,-4.335794449E0,-1.301695466E0,8.778069496E0
9.923508803E0,-4.280759811E0,-1.296909928E0,8.769695282E0
9.942318230E0,-4.230510235E0,-1.293320656E0,8.791230202E0
9.961127657E0,-4.242474556E0,-1.275374413E0,8.812766075E0
9.979937032E0,-4.283152580E0,-1.281356573E0,8.817551613E0
9.998746459E0,-4.285545349E0,-1.314856052E0,8.794819832E0
1.001755589E1,-4.341776848E0,-1.351944804E0,8.768498421E0
1.003636531E1,-4.347758770E0,-1.374676585E0,8.762516975E0
1.005517469E1,-4.371686935E0,-1.375872970E0,8.779266357E0
1.007398412E1,-4.350151539E0,-1.357926846E0,8.786444664E0
1.009279354E1,-4.403990269E0,-1.397408366E0,8.787641525E0
1.011160297E1,-4.369294167E0,-1.385444283E0,8.784051895E0
1.013041234E1,-4.333401680E0,-1.350748420E0,8.786444664E0
1.014922177E1,-4.357329845E0,-1.331605792E0,8.800801277E0
1.016803120E1,-4.365705013E0,-1.332802176E0,8.775676727E0
1.018684057E1,-4.377668858E0,-1.322034478E0,8.769695282E0
1.020565000E1,-4.363312244E0,-1.326820135E0,8.775676727E0
1.022445943E1,-4.396811485E0,-1.333998680E0,8.767302513E0
1.024326880E1,-4.365705013E0,-1.343569875E0,8.792427063E0
1.026207823E1,-4.380061626E0,-1.313659668E0,8.791230202E0
1.028088766E1,-4.384847641E0,-1.301695466E0,8.749356270E0
1.029969708E1,-4.392025948E0,-1.320838094E0,8.755337715E0
1.031850646E1,-4.427918434E0,-1.316052437E0,8.775676727E0
1.033731589E1,-4.445864677E0,-1.332802176E0,8.774480820E0
1.035612531E1,-4.417150497E0,-1.335195065E0,8.762516975E0
1.037493469E1,-4.412364960E0,-1.330409408E0,8.757730484E0
1.039374412E1,-4.419543266E0,-1.323230863E0,8.756534576E0
1.041255354E1,-4.437489510E0,-1.332802176E0,8.766105652E0
1.043136297E1,-4.473381996E0,-1.318445325E0,8.757730484E0
1.045017234E1,-4.485345840E0,-1.307677627E0,8.750552177E0
1.046898177E1,-4.491328239E0,-1.275374413E0,8.758927345E0
1.048779120E1,-4.479363918E0,-1.275374413E0,8.751749039E0
1.050660057E1,-4.484149456E0,-1.238285661E0,8.763712883E0
1.052541000E1,-4.468596458E0,-1.226321578E0,8.752944946E0
1.054421943E1,-4.454239368E0,-1.234696507E0,8.729017258E0
1.056302880E1,-4.485345840E0,-1.245464206E0,8.749356270E0
1.058183823E1,-4.523631096E0,-1.216750264E0,8.742177963E0
1.060064766E1,-4.499702930E0,-1.235892892E0,8.734998703E0
1.061945703E1,-4.528416634E0,-1.252642632E0,8.737391472E0
1.063826646E1,-4.502095699E0,-1.276570916E0,8.709874153E0
1.065707589E1,-4.485345840E0,-1.302891970E0,8.715856552E0
1.067588526E1,-4.481756687E0,-1.320838094E0,8.733802795E0
1.069469469E1,-4.517649174E0,-1.330409408E0,8.725427628E0
1.071350412E1,-4.497310162E0,-1.338784218E0,8.720642090E0
1.073231354E1,-4.500899315E0,-1.369890928E0,8.738588333E0
1.075112292E1,-4.511667252E0,-1.337587833E0,8.757730484E0
1.076993234E1,-4.494917393E0,-1.255035520E0,8.737391472E0
1.078874177E1,-4.497310162E0,-1.215553880E0,8.748159409E0
1.080755115E1,-4.554738045E0,-1.208375454E0,8.754141808E0
1.082636057E1,-4.570291042E0,-1.184447169E0,8.700303078E0
1.084517000E1,-4.573880672E0,-1.198804140E0,8.712266922E0
1.086397938E1,-4.547559261E0,-1.197607756E0,8.730213165E0
1.088278880E1,-4.510470867E0,-1.234696507E0,8.707481384E0
1.090159823E1,-4.503292084E0,-1.253839016E0,8.730213165E0
1.092040761E1,-4.512863636E0,-1.270588875E0,8.749356270E0
1.093921703E1,-4.505684853E0,-1.272981644E0,8.748159409E0
1.095802646E1,-4.485345840E0,-1.313659668E0,8.720642090E0
1.097683583E1,-4.459024906E0,-1.350748420E0,8.746963501E0
1.099564526E1,-4.438685894E0,-1.350748420E0,8.758927345E0
1.101445469E1,-4.408775806E0,-1.320838094E0,8.752944946E0
1.103326406E1,-4.436293125E0,-1.286142230E0,8.755337715E0
1.105207349E1,-4.473381996E0,-1.271785259E0,8.744570732E0
1.107088292E1,-4.474578381E0,-1.264606714E0,8.729017258E0
1.108969229E1,-4.468596458E0,-1.288534999E0,8.738588333E0
1.110850172E1,-4.500899315E0,-1.265803218E0,8.755337715E0
1.112731115E1,-4.527220249E0,-1.243071318E0,8.734998703E0
1.114612052E1,-4.517649174E0,-1.223928809E0,8.711071014E0
1.116492995E1,-4.518845558E0,-1.246660590E0,8.701499939E0
1.118373938E1,-4.533202648E0,-1.258624673E0,8.734998703E0
1.120254875E1,-4.526023865E0,-1.244267821E0,8.737391472E0
1.122135818E1,-4.500899315E0,-1.268195987E0,8.734998703E0
1.124016760E1,-4.451846600E0,-1.286142230E0,8.748159409E0
1.125897698E1,-4.457828522E0,-1.282552958E0,8.761320114E0
1.127778641E1,-4.470989227E0,-1.268195987E0,8.752944946E0
1.129659578E1,-4.466203690E0,-1.272981644E0,8.758927345E0
1.131540521E1,-4.462614059E0,-1.271785259E0,8.744570732E0
1.133421464E1,-4.482953072E0,-1.263410330E0,8.754141808E0
1.135302401E1,-4.474578381E0,-1.241874933E0,8.738588333E0
1.137183344E1,-4.487739086E0,-1.229910851E0,8.737391472E0
1.139064286E1,-4.510470867E0,-1.268195987E0,8.766105652E0
1.140945224E1,-4.506881237E0,-1.271785259E0,8.754141808E0
1.142826167E1,-4.497310162E0,-1.229910851E0,8.738588333E0
1.144707109E1,-4.493721008E0,-1.231107235E0,8.737391472E0
1.146588047E1,-4.565505505E0,-1.296909928E0,8.714659691E0
1.148468990E1,-4.584648132E0,-1.313659668E0,8.672785759E0
1.150349932E1,-4.523631096E0,-1.317248821E0,8.701499939E0
1.152230870E1,-4.502095699E0,-1.323230863E0,8.699107170E0
1.154111813E1,-4.486542225E0,-1.307677627E0,8.746963501E0
1.155992755E1,-4.456632137E0,-1.271785259E0,8.764909744E0
1.157873693E1,-4.438685894E0,-1.237089276E0,8.768498421E0
1.159754636E1,-4.436293125E0,-1.207179070E0,8.736195564E0
1.161635573E1,-4.451846600E0,-1.243071318E0,8.736195564E0
1.163516516E1,-4.481756687E0,-1.288534999E0,8.750552177E0
1.165397458E1,-4.506881237E0,-1.281356573E0,8.744570732E0
1.167278396E1,-4.526023865E0,-1.299302697E0,8.729017258E0
1.169159339E1,-4.514060020E0,-1.283749342E0,8.723034859E0
1.171040281E1,-4.515256405E0,-1.298106313E0,8.713463783E0
1.172921219E1,-4.499702930E0,-1.277767301E0,8.700303078E0
1.174802162E1,-4.491328239E0,-1.233500123E0,8.751749039E0
1.176683104E1,-4.467400074E0,-1.219143152E0,8.774480820E0
1.178564042E1,-4.453042984E0,-1.208375454E0,8.763712883E0
1.180444984E1,-4.479363918E0,-1.238285661E0,8.742177963E0
1.182325922E1,-4.508078098E0,-1.295713425E0,8.732605934E0
1.184206865E1,-4.536791801E0,-1.307677627E0,8.717052460E0
1.186087807E1,-4.572684288E0,-1.329213023E0,8.717052460E0
1.187968745E1,-4.528416634E0,-1.329213023E0,8.688339233E0
1.189849688E1,-4.460221291E0,-1.308874011E0,8.711071014E0
1.191730630E1,-4.425525665E0,-1.278963685E0,8.734998703E0
1.193611568E1,-4.412364960E0,-1.228714466E0,8.757730484E0
1.195492511E1,-4.437489510E0,-1.201196909E0,8.764909744E0
1.197373448E1,-4.480560303E0,-1.211964726E0,8.775676727E0
1.199254391E1,-4.536791801E0,-1.272981644E0,8.757730484E0
1.201135333E1,-4.528416634E0,-1.304088354E0,8.713463783E0
1.203016271E1,-4.564309120E0,-1.329213023E0,8.699107170E0
1.204897214E1,-4.576273441E0,-1.331605792E0,8.714659691E0
1.206778156E1,-4.509274483E0,-1.316052437E0,8.708678246E0
1.208659094E1,-4.408775806E0,-1.261017561E0,8.706285477E0
1.210540037E1,-4.363312244E0,-1.220339537E0,8.791230202E0
1.212420974E1,-4.433900356E0,-1.210768223E0,8.825926781E0
1.214301917E1,-4.504488468E0,-1.202393413E0,8.776873589E0
1.216182859E1,-4.530809879E0,-1.208375454E0,8.748159409E0
1.218063797E1,-4.541577339E0,-1.266999602E0,8.695517540E0
1.219944740E1,-4.542773724E0,-1.324427366E0,8.682356834E0
1.221825677E1,-4.493721008E0,-1.332802176E0,8.689535141E0
1.223706620E1,-4.447061062E0,-1.301695466E0,8.707481384E0
1.225587563E1,-4.443471432E0,-1.271785259E0,8.739784241E0
1.227468500E1,-4.473381996E0,-1.270588875E0,8.787641525E0
1.229349443E1,-4.486542225E0,-1.288534999E0,8.800801277E0
1.231230386E1,-4.512863636E0,-1.288534999E0,8.754141808E0
1.233111323E1,-4.502095699E0,-1.300499082E0,8.724231720E0
1.234992266E1,-4.515256405E0,-1.290927768E0,8.703892708E0
1.236873203E1,-4.506881237E0,-1.263410330E0,8.706285477E0
1.238754146E1,-4.473381996E0,-1.241874933E0,8.713463783E0
1.240635089E1,-4.435096741E0,-1.262213945E0,8.737391472E0
1.242516026E1,-4.447061062E0,-1.286142230E0,8.755337715E0
1.244396969E1,-4.503292084E0,-1.275374413E0,8.761320114E0
1.246277906E1,-4.573880672E0,-1.266999602E0,8.739784241E0
1.248158849E1,-4.569094658E0,-1.270588875E0,8.714659691E0
1.250039792E1,-4.534399033E0,-1.265803218E0,8.690732002E0
1.251920729E1,-4.506881237E0,-1.284945726E0,8.705088615E0
1.253801672E1,-4.488935471E0,-1.272981644E0,8.721838951E0
1.255682609E1,-4.515256405E0,-1.272981644E0,8.754141808E0
1.257563552E1,-4.537988186E0,-1.280160069E0,8.745766640E0
1.259444495E1,-4.517649174E0,-1.282552958E0,8.729017258E0
1.261325432E1,-4.491328239E0,-1.276570916E0,8.739784241E0
1.263206375E1,-4.479363918E0,-1.257428288E0,8.749356270E0
1.265087313E1,-4.465006828E0,-1.261017561E0,8.746963501E0
1.266968255E1,-4.441078663E0,-1.244267821E0,8.734998703E0
1.268849193E1,-4.468596458E0,-1.234696507E0,8.730213165E0
1.270730136E1,-4.499702930E0,-1.299302697E0,8.743373871E0
1.272611078E1,-4.511667252E0,-1.319641709E0,8.743373871E0
1.274492016E1,-4.500899315E0,-1.263410330E0,8.743373871E0
1.276372958E1,-4.441078663E0,-1.228714466E0,8.740981102E0
1.278253896E1,-4.470989227E0,-1.238285661E0,8.743373871E0
1.280134839E1,-4.485345840E0,-1.241874933E0,8.703892708E0
1.282015781E1,-4.482953072E0,-1.249053478E0,8.714659691E0
1.283896719E1,-4.506881237E0,-1.261017561E0,8.734998703E0
1.285777662E1,-4.516452789E0,-1.263410330E0,8.743373871E0
1.287658599E1,-4.492524624E0,-1.314856052E0,8.734998703E0
1.289539542E1,-4.500899315E0,-1.320838094E0,8.719446182E0
1.291420479E1,-4.497310162E0,-1.308874011E0,8.702695847E0
1.293301422E1,-4.516452789E0,-1.292124271E0,8.719446182E0
1.295182365E1,-4.510470867E0,-1.300499082E0,8.739784241E0
1.297063302E1,-4.504488468E0,-1.261017561E0,8.768498421E0
1.298944245E1,-4.509274483E0,-1.258624673E0,8.736195564E0
1.300825182E1,-4.481756687E0,-1.266999602E0,8.714659691E0
1.302706125E1,-4.518845558E0,-1.233500123E0,8.734998703E0
1.304587063E1,-4.505684853E0,-1.213161111E0,8.748159409E0
1.306468005E1,-4.511667252E0,-1.204786181E0,8.736195564E0
1.308348948E1,-4.515256405E0,-1.222732425E0,8.732605934E0
1.310229886E1,-4.504488468E0,-1.249053478E0,8.717052460E0
1.312110828E1,-4.515256405E0,-1.268195987E0,8.729017258E0
1.313991766E1,-4.515256405E0,-1.278963685E0,8.733802795E0
1.315872708E1,-4.535595417E0,-1.308874011E0,8.733802795E0
1.317753651E1,-4.529613495E0,-1.305284739E0,8.720642090E0
1.319634589E1,-4.510470867E0,-1.300499082E0,8.723034859E0
1.321515531E1,-4.503292084E0,-1.308874011E0,8.745766640E0
1.323396469E1,-4.498506546E0,-1.282552958E0,8.744570732E0
1.325277412E1,-4.472185612E0,-1.277767301E0,8.750552177E0
1.327158349E1,-4.475774765E0,-1.251446247E0,8.748159409E0
1.329039292E1,-4.488935471E0,-1.232303619E0,8.736195564E0
1.330920229E1,-4.502095699E0,-1.245464206E0,8.748159409E0
1.332801172E1,-4.486542225E0,-1.272981644E0,8.739784241E0
1.334682115E1,-4.488935471E0,-1.269392371E0,8.705088615E0
1.336563052E1,-4.500899315E0,-1.271785259E0,8.714659691E0
1.338443995E1,-4.536791801E0,-1.335195065E0,8.736195564E0
1.340324932E1,-4.516452789E0,-1.339980721E0,8.738588333E0
1.342205875E1,-4.462614059E0,-1.278963685E0,8.731410027E0
1.344086813E1,-4.419543266E0,-1.266999602E0,8.774480820E0
1.345967755E1,-4.441078663E0,-1.286142230E0,8.755337715E0
1.347848698E1,-4.444668293E0,-1.270588875E0,8.724231720E0
1.349729636E1,-4.462614059E0,-1.251446247E0,8.767302513E0
1.351610578E1,-4.454239368E0,-1.262213945E0,8.746963501E0
1.353491516E1,-4.467400074E0,-1.290927768E0,8.743373871E0
1.355372458E1,-4.465006828E0,-1.289731383E0,8.734998703E0
1.357253396E1,-4.476971149E0,-1.276570916E0,8.719446182E0
1.359134339E1,-4.506881237E0,-1.272981644E0,8.726624489E0
1.361015276E1,-4.526023865E0,-1.305284739E0,8.727820396E0
1.362896219E1,-4.512863636E0,-1.325623751E0,8.738588333E0
1.364777162E1,-4.509274483E0,-1.300499082E0,8.718249321E0
1.366658099E1,-4.516452789E0,-1.288534999E0,8.731410027E0
1.368539042E1,-4.536791801E0,-1.283749342E0,8.718249321E0
1.370419979E1,-4.522434711E0,-1.306481123E0,8.721838951E0
1.372300922E1,-4.506881237E0,-1.323230863E0,8.709874153E0
1.374181859E1,-4.510470867E0,-1.319641709E0,8.734998703E0
1.376062802E1,-4.510470867E0,-1.294517040E0,8.743373871E0
1.377943740E1,-4.508078098E0,-1.293320656E0,8.718249321E0
1.379824682E1,-4.502095699E0,-1.299302697E0,8.713463783E0
1.381705625E1,-4.516452789E0,-1.305284739E0,8.731410027E0
1.383586563E1,-4.494917393E0,-1.281356573E0,8.749356270E0
1.385467505E1,-4.480560303E0,-1.281356573E0,8.726624489E0
1.387348443E1,-4.461417675E0,-1.287338614E0,8.736195564E0
1.389229386E1,-4.473381996E0,-1.247856975E0,8.754141808E0
1.391110323E1,-4.459024906E0,-1.235892892E0,8.756534576E0
1.392991266E1,-4.438685894E0,-1.229910851E0,8.749356270E0
1.394872208E1,-4.421936035E0,-1.237089276E0,8.757730484E0
1.396753146E1,-4.465006828E0,-1.240678549E0,8.762516975E0
1.398634089E1,-4.485345840E0,-1.262213945E0,8.760123253E0
1.400515026E1,-4.516452789E0,-1.277767301E0,8.733802795E0
1.402395969E1,-4.502095699E0,-1.294517040E0,8.705088615E0
1.404276906E1,-4.504488468E0,-1.301695466E0,8.758927345E0
1.406157849E1,-4.523631096E0,-1.324427366E0,8.776873589E0
1.408038786E1,-4.486542225E0,-1.310070395E0,8.733802795E0
1.409919729E1,-4.451846600E0,-1.288534999E0,8.707481384E0
1.411800667E1,-4.444668293E0,-1.275374413E0,8.767302513E0
1.413681609E1,-4.517649174E0,-1.292124271E0,8.750552177E0
1.415562547E1,-4.498506546E0,-1.286142230E0,8.707481384E0
1.417443490E1,-4.472185612E0,-1.308874011E0,8.720642090E0
1.419324427E1,-4.480560303E0,-1.284945726E0,8.742177963E0
1.421205370E1,-4.488935471E0,-1.289731383E0,8.738588333E0
1.423086313E1,-4.484149456E0,-1.299302697E0,8.720642090E0
1.424967250E1,-4.474578381E0,-1.295713425E0,8.701499939E0
1.426848193E1,-4.481756687E0,-1.299302697E0,8.723034859E0
1.428729130E1,-4.486542225E0,-1.312463164E0,8.752944946E0
1.430610073E1,-4.476971149E0,-1.301695466E0,8.755337715E0
1.432491010E1,-4.448257446E0,-1.276570916E0,8.740981102E0
1.434371953E1,-4.438685894E0,-1.265803218E0,8.737391472E0
1.436252891E1,-4.476971149E0,-1.268195987E0,8.738588333E0
1.438133833E1,-4.480560303E0,-1.270588875E0,8.746963501E0
1.440014771E1,-4.480560303E0,-1.257428288E0,8.752944946E0
1.441895714E1,-4.481756687E0,-1.280160069E0,8.750552177E0
1.443776651E1,-4.500899315E0,-1.276570916E0,8.737391472E0
1.445657594E1,-4.515256405E0,-1.259821177E0,8.724231720E0
1.447538531E1,-4.528416634E0,-1.245464206E0,8.707481384E0
1.449419474E1,-4.530809879E0,-1.269392371E0,8.724231720E0
1.451300417E1,-4.534399033E0,-1.290927768E0,8.723034859E0
1.453181354E1,-4.530809879E0,-1.276570916E0,8.721838951E0
1.455062297E1,-4.541577339E0,-1.264606714E0,8.719446182E0
1.456943234E1,-4.535595417E0,-1.255035520E0,8.726624489E0
1.458824177E1,-4.524827480E0,-1.259821177E0,8.727820396E0
1.460705115E1,-4.520041943E0,-1.269392371E0,8.701499939E0
1.462586057E1,-4.512863636E0,-1.264606714E0,8.711071014E0
1.464466995E1,-4.510470867E0,-1.259821177E0,8.746963501E0
1.466347938E1,-4.517649174E0,-1.288534999E0,8.745766640E0
1.468228875E1,-4.485345840E0,-1.255035520E0,8.723034859E0
1.470109818E1,-4.481756687E0,-1.253839016E0,8.730213165E0
1.471990755E1,-4.503292084E0,-1.294517040E0,8.726624489E0
1.473871698E1,-4.534399033E0,-1.314856052E0,8.732605934E0
1.475752636E1,-4.530809879E0,-1.272981644E0,8.717052460E0
1.477633578E1,-4.522434711E0,-1.257428288E0,8.748159409E0
1.479514516E1,-4.518845558E0,-1.286142230E0,8.745766640E0
1.481395458E1,-4.515256405E0,-1.263410330E0,8.718249321E0
1.483276396E1,-4.504488468E0,-1.257428288E0,8.709874153E0
1.485157339E1,-4.536791801E0,-1.263410330E0,8.715856552E0
1.487038276E1,-4.527220249E0,-1.289731383E0,8.713463783E0
1.488919219E1,-4.515256405E0,-1.290927768E0,8.720642090E0
1.490800156E1,-4.506881237E0,-1.258624673E0,8.723034859E0
1.492681099E1,-4.505684853E0,-1.256231904E0,8.726624489E0
1.494562037E1,-4.482953072E0,-1.262213945E0,8.733802795E0
1.496442979E1,-4.502095699E0,-1.294517040E0,8.744570732E0
1.498323917E1,-4.498506546E0,-1.269392371E0,8.724231720E0
1.500204859E1,-4.490131855E0,-1.266999602E0,8.718249321E0
1.502085797E1,-4.479363918E0,-1.270588875E0,8.738588333E0
1.503966740E1,-4.508078098E0,-1.276570916E0,8.740981102E0
1.505847677E1,-4.512863636E0,-1.269392371E0,8.750552177E0
1.507728620E1,-4.492524624E0,-1.262213945E0,8.733802795E0
1.509609557E1,-4.506881237E0,-1.262213945E0,8.739784241E0
1.511490500E1,-4.499702930E0,-1.268195987E0,8.712266922E0
1.513371438E1,-4.500899315E0,-1.252642632E0,8.715856552E0
1.515252380E1,-4.533202648E0,-1.269392371E0,8.707481384E0
1.517133318E1,-4.551148891E0,-1.277767301E0,8.714659691E0
1.519014260E1,-4.520041943E0,-1.265803218E0,8.717052460E0
1.520895198E1,-4.506881237E0,-1.262213945E0,8.720642090E0
1.522776141E1,-4.527220249E0,-1.269392371E0,8.751749039E0
1.524657078E1,-4.536791801E0,-1.253839016E0,8.737391472E0
1.526538021E1,-4.551148891E0,-1.263410330E0,8.694320679E0
1.528418958E1,-4.547559261E0,-1.306481123E0,8.693124771E0
1.530299901E1,-4.581058979E0,-1.324427366E0,8.720642090E0
1.532180839E1,-4.572684288E0,-1.355534077E0,8.723034859E0
1.534061781E1,-4.521238327E0,-1.337587833E0,8.697910309E0
1.535942719E1,-4.503292084E0,-1.314856052E0,8.734998703E0
1.537823662E1,-4.521238327E0,-1.324427366E0,8.772088051E0
1.539704599E1,-4.491328239E0,-1.336391449E0,8.731410027E0
1.541585542E1,-4.415954113E0,-1.316052437E0,8.725427628E0
1.543466479E1,-4.372883320E0,-1.290927768E0,8.757730484E0
1.545347422E1,-4.426722050E0,-1.287338614E0,8.788837433E0
1.547228359E1,-4.473381996E0,-1.277767301E0,8.724231720E0
1.549109302E1,-4.463810444E0,-1.228714466E0,8.719446182E0
1.550990240E1,-4.467400074E0,-1.219143152E0,8.750552177E0
1.552871182E1,-4.470989227E0,-1.232303619E0,8.723034859E0
1.554752120E1,-4.476971149E0,-1.233500123E0,8.715856552E0
1.556633063E1,-4.492524624E0,-1.240678549E0,8.724231720E0
1.558514000E1,-4.498506546E0,-1.235892892E0,8.690732002E0
1.560394938E1,-4.511667252E0,-1.251446247E0,8.703892708E0
1.562275880E1,-4.527220249E0,-1.272981644E0,8.706285477E0
1.564156818E1,-4.534399033E0,-1.278963685E0,8.723034859E0
1.566037760E1,-4.517649174E0,-1.274178028E0,8.738588333E0
1.567918698E1,-4.518845558E0,-1.266999602E0,8.737391472E0
1.569799641E1,-4.508078098E0,-1.274178028E0,8.715856552E0
1.571680578E1,-4.535595417E0,-1.264606714E0,8.702695847E0
1.573561521E1,-4.542773724E0,-1.255035520E0,8.736195564E0
1.575442458E1,-4.567898273E0,-1.270588875E0,8.720642090E0
1.577323401E1,-4.540380955E0,-1.239482164E0,8.721838951E0
1.579204339E1,-4.536791801E0,-1.268195987E0,8.707481384E0
1.581085281E1,-4.569094658E0,-1.266999602E0,8.705088615E0
1.582966219E1,-4.552345276E0,-1.272981644E0,8.713463783E0
1.584847162E1,-4.569094658E0,-1.247856975E0,8.706285477E0
1.586728099E1,-4.581058979E0,-1.271785259E0,8.719446182E0
1.588609042E1,-4.579862595E0,-1.276570916E0,8.695517540E0
1.590489979E1,-4.581058979E0,-1.264606714E0,8.679964066E0
1.592370922E1,-4.589433670E0,-1.270588875E0,8.695517540E0
1.594251859E1,-4.609772682E0,-1.263410330E0,8.691927910E0
1.596132802E1,-4.584648132E0,-1.244267821E0,8.688339233E0
1.598013740E1,-4.584648132E0,-1.237089276E0,8.702695847E0
1.599894677E1,-4.576273441E0,-1.226321578E0,8.699107170E0
1.601775620E1,-4.555934429E0,-1.214357495E0,8.701499939E0
1.603656557E1,-4.549952030E0,-1.180858016E0,8.714659691E0
1.605537500E1,-4.549952030E0,-1.234696507E0,8.727820396E0
1.607418438E1,-4.565505505E0,-1.292124271E0,8.733802795E0
1.609299380E1,-4.541577339E0,-1.300499082E0,8.689535141E0
1.611180318E1,-4.491328239E0,-1.325623751E0,8.714659691E0
1.613061260E1,-4.533202648E0,-1.324427366E0,8.724231720E0
1.614942198E1,-4.548755646E0,-1.316052437E0,8.707481384E0
1.616823136E1,-4.535595417E0,-1.300499082E0,8.711071014E0
1.618704078E1,-4.508078098E0,-1.283749342E0,8.724231720E0
1.620585016E1,-4.503292084E0,-1.277767301E0,8.733802795E0
1.622465958E1,-4.521238327E0,-1.249053478E0,8.744570732E0
1.624346896E1,-4.529613495E0,-1.222732425E0,8.727820396E0
1.626227839E1,-4.537988186E0,-1.208375454E0,8.689535141E0
1.628108776E1,-4.533202648E0,-1.225125194E0,8.696713448E0
1.629989719E1,-4.563112736E0,-1.237089276E0,8.717052460E0
1.631870656E1,-4.557130814E0,-1.249053478E0,8.694320679E0
1.633751599E1,-4.541577339E0,-1.272981644E0,8.688339233E0
1.635632536E1,-4.570291042E0,-1.278963685E0,8.676374435E0
1.637513474E1,-4.572684288E0,-1.270588875E0,8.705088615E0
1.639394417E1,-4.566701889E0,-1.277767301E0,8.714659691E0
1.641275354E1,-4.549952030E0,-1.294517040E0,8.714659691E0
1.643156297E1,-4.533202648E0,-1.268195987E0,8.715856552E0
1.645037234E1,-4.523631096E0,-1.259821177E0,8.724231720E0
1.646918177E1,-4.543970108E0,-1.247856975E0,8.719446182E0
1.648799115E1,-4.549952030E0,-1.249053478E0,8.711071014E0
1.650680052E1,-4.534399033E0,-1.250249863E0,8.715856552E0
1.652560995E1,-4.547559261E0,-1.276570916E0,8.720642090E0
1.654441932E1,-4.554738045E0,-1.281356573E0,8.709874153E0
1.656322875E1,-4.535595417E0,-1.268195987E0,8.687142372E0
1.658203813E1,-4.551148891E0,-1.264606714E0,8.702695847E0
1.660084755E1,-4.591826439E0,-1.257428288E0,8.709874153E0
1.661965693E1,-4.569094658E0,-1.259821177E0,8.705088615E0
1.663846630E1,-4.558327198E0,-1.269392371E0,8.688339233E0
1.665727573E1,-4.536791801E0,-1.253839016E0,8.691927910E0
1.667608511E1,-4.553541660E0,-1.246660590E0,8.731410027E0
1.669489453E1,-4.561916351E0,-1.258624673E0,8.718249321E0
1.671370391E1,-4.545166492E0,-1.270588875E0,8.694320679E0
1.673251333E1,-4.516452789E0,-1.239482164E0,8.690732002E0
1.675132271E1,-4.584648132E0,-1.231107235E0,8.739784241E0
1.677013214E1,-4.589433670E0,-1.271785259E0,8.745766640E0
1.678894151E1,-4.572684288E0,-1.282552958E0,8.699107170E0
1.680775089E1,-4.518845558E0,-1.241874933E0,8.697910309E0
1.682656031E1,-4.541577339E0,-1.259821177E0,8.721838951E0
1.684536969E1,-4.587040901E0,-1.261017561E0,8.717052460E0
1.686417912E1,-4.585844517E0,-1.229910851E0,8.690732002E0
1.688298849E1,-4.559523582E0,-1.238285661E0,8.705088615E0
1.690179787E1,-4.567898273E0,-1.256231904E0,8.695517540E0
1.692060729E1,-4.553541660E0,-1.252642632E0,8.681160927E0
1.693941667E1,-4.569094658E0,-1.252642632E0,8.711071014E0
1.695822609E1,-4.571487427E0,-1.256231904E0,8.702695847E0
1.697703547E1,-4.565505505E0,-1.240678549E0,8.687142372E0
1.699584490E1,-4.572684288E0,-1.257428288E0,8.691927910E0
1.701465427E1,-4.561916351E0,-1.261017561E0,8.702695847E0
1.703346365E1,-4.546362877E0,-1.264606714E0,8.699107170E0
1.705227307E1,-4.534399033E0,-1.252642632E0,8.707481384E0
1.707108245E1,-4.551148891E0,-1.235892892E0,8.715856552E0
1.708989188E1,-4.579862595E0,-1.241874933E0,8.705088615E0
1.710870125E1,-4.554738045E0,-1.246660590E0,8.702695847E0
1.712751063E1,-4.572684288E0,-1.244267821E0,8.705088615E0
1.714632005E1,-4.576273441E0,-1.213161111E0,8.705088615E0
1.716512943E1,-4.571487427E0,-1.228714466E0,8.695517540E0
1.718393886E1,-4.576273441E0,-1.213161111E0,8.690732002E0
1.720274823E1,-4.561916351E0,-1.221535921E0,8.672785759E0
1.722155760E1,-4.546362877E0,-1.231107235E0,8.689535141E0
1.724036703E1,-4.565505505E0,-1.232303619E0,8.715856552E0
1.725917641E1,-4.591826439E0,-1.262213945E0,8.714659691E0
1.727798583E1,-4.570291042E0,-1.258624673E0,8.688339233E0
1.729679521E1,-4.576273441E0,-1.233500123E0,8.685946465E0
1.731560458E1,-4.595416069E0,-1.252642632E0,8.678768158E0
1.733441401E1,-4.543970108E0,-1.287338614E0,8.684749603E0
1.735322339E1,-4.528416634E0,-1.290927768E0,8.695517540E0
1.737203281E1,-4.549952030E0,-1.290927768E0,8.723034859E0
1.739084219E1,-4.549952030E0,-1.282552958E0,8.714659691E0
1.740965156E1,-4.537988186E0,-1.269392371E0,8.709874153E0
1.742846099E1,-4.561916351E0,-1.261017561E0,8.697910309E0
1.744727036E1,-4.557130814E0,-1.235892892E0,8.725427628E0
1.746607979E1,-4.584648132E0,-1.244267821E0,8.708678246E0
1.748488917E1,-4.587040901E0,-1.227517962E0,8.713463783E0
1.750369854E1,-4.548755646E0,-1.200000525E0,8.687142372E0
1.752250797E1,-4.551148891E0,-1.201196909E0,8.702695847E0
1.754131734E1,-4.610969067E0,-1.202393413E0,8.712266922E0
1.756012672E1,-4.599005222E0,-1.226321578E0,8.683553696E0
1.757893615E1,-4.549952030E0,-1.200000525E0,8.696713448E0
1.759774552E1,-4.545166492E0,-1.226321578E0,8.696713448E0
1.761655495E1,-4.526023865E0,-1.244267821E0,8.711071014E0
1.763536432E1,-4.545166492E0,-1.268195987E0,8.708678246E0
1.765417370E1,-4.535595417E0,-1.271785259E0,8.689535141E0
1.767298313E1,-4.526023865E0,-1.275374413E0,8.705088615E0
1.769179250E1,-4.542773724E0,-1.292124271E0,8.739784241E0
1.771060193E1,-4.527220249E0,-1.276570916E0,8.718249321E0
1.772941130E1,-4.508078098E0,-1.265803218E0,8.690732002E0
1.774822068E1,-4.534399033E0,-1.231107235E0,8.679964066E0
1.776703010E1,-4.581058979E0,-1.188036442E0,8.696713448E0
1.778583948E1,-4.614558697E0,-1.173679471E0,8.711071014E0
1.780464886E1,-4.632504463E0,-1.197607756E0,8.699107170E0
1.782345828E1,-4.630111694E0,-1.251446247E0,8.662017822E0
1.784226766E1,-4.626522541E0,-1.233500123E0,8.670392990E0
1.786107703E1,-4.634897232E0,-1.203589797E0,8.659625053E0
1.787988646E1,-4.644468784E0,-1.191625714E0,8.673981667E0
1.789869583E1,-4.642076015E0,-1.198804140E0,8.663214684E0
1.791750526E1,-4.628915310E0,-1.201196909E0,8.677571297E0
1.793631464E1,-4.607379913E0,-1.167697430E0,8.695517540E0
1.795512401E1,-4.595416069E0,-1.165304661E0,8.706285477E0
1.797393344E1,-4.600201607E0,-1.178465128E0,8.685946465E0
1.799274281E1,-4.652843475E0,-1.204786181E0,8.660821915E0
1.801155224E1,-4.654039860E0,-1.202393413E0,8.659625053E0
1.803036162E1,-4.661218643E0,-1.196411371E0,8.695517540E0
1.804917099E1,-4.709074974E0,-1.180858016E0,8.677571297E0
1.806798042E1,-4.670789719E0,-1.173679471E0,8.662017822E0
1.808678979E1,-4.644468784E0,-1.164108157E0,8.642875671E0
1.810559917E1,-4.677968502E0,-1.143769264E0,8.659625053E0
1.812440859E1,-4.721039295E0,-1.104287624E0,8.659625053E0
1.814321797E1,-4.710271358E0,-1.089930773E0,8.671588898E0
1.816202734E1,-4.710271358E0,-1.138983607E0,8.622536659E0
1.818083677E1,-4.711467743E0,-1.158126116E0,8.634500504E0
1.819964615E1,-4.692325115E0,-1.155733347E0,8.645268440E0
1.821845552E1,-4.663611412E0,-1.138983607E0,8.668000221E0
1.823726495E1,-4.668396950E0,-1.142572761E0,8.633303642E0
1.825607432E1,-4.668396950E0,-1.159322619E0,8.635697365E0
1.827488370E1,-4.677968502E0,-1.185643673E0,8.666803360E0
1.829369313E1,-4.664807796E0,-1.200000525E0,8.668000221E0
1.831250250E1,-4.622933388E0,-1.194018483E0,8.676374435E0
1.833131193E1,-4.590630054E0,-1.133001566E0,8.683553696E0
1.835012130E1,-4.633700848E0,-1.104287624E0,8.688339233E0
1.836893068E1,-4.695914268E0,-1.094716311E0,8.662017822E0
1.838774011E1,-4.724628448E0,-1.109073281E0,8.656036377E0
1.840654948E1,-4.740181446E0,-1.122233868E0,8.656036377E0
1.842535886E1,-4.753342152E0,-1.091127157E0,8.621339798E0
1.844416828E1,-4.736592293E0,-1.058824062E0,8.668000221E0
1.846297766E1,-4.797609329E0,-1.057627559E0,8.644071579E0
1.848178703E1,-4.817948341E0,-1.085145116E0,8.568697929E0
1.850059646E1,-4.776073933E0,-1.109073281E0,8.551948547E0
1.851940583E1,-4.804787636E0,-1.111466169E0,8.620143890E0
1.853821521E1,-4.796412945E0,-1.118644595E0,8.673981667E0
1.855702464E1,-4.723432064E0,-1.141376376E0,8.657232285E0
1.857583401E1,-4.667200565E0,-1.134197950E0,8.626125336E0
1.859464339E1,-4.637290478E0,-1.124626637E0,8.628518105E0
1.861345281E1,-4.627718925E0,-1.122233868E0,8.664410591E0
1.863226219E1,-4.669593334E0,-1.119840980E0,8.671588898E0
1.865107156E1,-4.645665169E0,-1.128215909E0,8.681160927E0
1.866988099E1,-4.639683247E0,-1.153340459E0,8.694320679E0
1.868869037E1,-4.625326157E0,-1.140179992E0,8.700303078E0
1.870749974E1,-4.614558697E0,-1.101894855E0,8.706285477E0
1.872630917E1,-4.683950424E0,-1.083948612E0,8.685946465E0
1.874511854E1,-4.682754040E0,-1.105484009E0,8.605786324E0
1.876392792E1,-4.695914268E0,-1.110269666E0,8.614161491E0
1.878273734E1,-4.718646049E0,-1.128215909E0,8.671588898E0
1.880154672E1,-4.740181446E0,-1.109073281E0,8.711071014E0
1.882035609E1,-4.730610371E0,-1.118644595E0,8.656036377E0
1.883916552E1,-4.680361271E0,-1.142572761E0,8.583054543E0
1.885797490E1,-4.652843475E0,-1.167697430E0,8.556734085E0
1.887678427E1,-4.701896667E0,-1.117448211E0,8.688339233E0
1.889559365E1,-4.733003139E0,-1.083948612E0,8.752944946E0
1.891440307E1,-4.676771641E0,-1.097109199E0,8.723034859E0
1.893321245E1,-4.597808838E0,-1.088734269E0,8.648857117E0
1.895202188E1,-4.573880672E0,-1.089930773E0,8.638090134E0
1.897083125E1,-4.607379913E0,-1.104287624E0,8.690732002E0
1.898964063E1,-4.673182487E0,-1.103091240E0,8.675178528E0
1.900845000E1,-4.705485821E0,-1.082752228E0,8.671588898E0
1.902725943E1,-4.685146809E0,-1.063609719E0,8.682356834E0
1.904606880E1,-4.668396950E0,-1.054038405E0,8.671588898E0
1.906487818E1,-4.639683247E0,-1.038485050E0,8.653642654E0
1.908368760E1,-4.652843475E0,-1.048056364E0,8.624929428E0
1.910249698E1,-4.710271358E0,-1.058824062E0,8.606983185E0
1.912130636E1,-4.734199524E0,-1.124626637E0,8.630910873E0
1.914011578E1,-4.750949383E0,-1.208375454E0,8.652446747E0
1.915892516E1,-4.736592293E0,-1.196411371E0,8.682356834E0
1.917773453E1,-4.697110653E0,-1.155733347E0,8.650053978E0
1.919654396E1,-4.668396950E0,-1.142572761E0,8.627322197E0
1.921535333E1,-4.683950424E0,-1.156929731E0,8.646464348E0
1.923416271E1,-4.723432064E0,-1.143769264E0,8.676374435E0
1.925297214E1,-4.729413986E0,-1.087537885E0,8.687142372E0
1.927178151E1,-4.682754040E0,-1.077966571E0,8.648857117E0
1.929059089E1,-4.664807796E0,-1.075573802E0,8.638090134E0
1.930940026E1,-4.679164886E0,-1.061216831E0,8.645268440E0
1.932820969E1,-4.705485821E0,-1.046859860E0,8.654839516E0
1.934701906E1,-4.683950424E0,-1.038485050E0,8.647661209E0
1.936582844E1,-4.679164886E0,-1.074377418E0,8.644071579E0
1.938463787E1,-4.687539577E0,-1.097109199E0,8.652446747E0
1.940344724E1,-4.701896667E0,-1.100698471E0,8.653642654E0
1.942225662E1,-4.683950424E0,-1.066002488E0,8.663214684E0
1.944106599E1,-4.688735962E0,-1.074377418E0,8.662017822E0
1.945987542E1,-4.707878590E0,-1.077966571E0,8.650053978E0
1.947868479E1,-4.697110653E0,-1.057627559E0,8.676374435E0
1.949749417E1,-4.712664127E0,-1.058824062E0,8.663214684E0
1.951630359E1,-4.703093052E0,-1.040877819E0,8.654839516E0
1.953511297E1,-4.694717884E0,-1.060020447E0,8.654839516E0
1.955392234E1,-4.722235680E0,-1.067198873E0,8.664410591E0
1.957273177E1,-4.746163845E0,-1.046859860E0,8.616554260E0
1.959154115E1,-4.727021217E0,-1.031306505E0,8.614161491E0
1.961035052E1,-4.705485821E0,-1.015753269E0,8.677571297E0
1.962915990E1,-4.779663086E0,-1.051645517E0,8.705088615E0
1.964796932E1,-4.774877548E0,-1.067198873E0,8.640482903E0
1.966677870E1,-4.725824833E0,-1.054038405E0,8.572287560E0
1.968558807E1,-4.735395908E0,-1.081555843E0,8.572287560E0
1.970439750E1,-4.747360229E0,-1.076770186E0,8.642875671E0
1.972320688E1,-4.733003139E0,-1.071984529E0,8.678768158E0
1.974201625E1,-4.697110653E0,-1.075573802E0,8.663214684E0
1.976082563E1,-4.727021217E0,-1.075573802E0,8.638090134E0
1.977963505E1,-4.733003139E0,-1.039681435E0,8.623732567E0
1.979844443E1,-4.725824833E0,-1.028913736E0,8.648857117E0
1.981725380E1,-4.723432064E0,-1.025324464E0,8.638090134E0
1.983606323E1,-4.706682205E0,-1.049252748E0,8.648857117E0
1.985487260E1,-4.691128731E0,-1.071984529E0,8.650053978E0
1.987368198E1,-4.730610371E0,-1.055234790E0,8.639286041E0
1.989249136E1,-4.741377831E0,-1.052842021E0,8.654839516E0
1.991130078E1,-4.744967461E0,-1.036092162E0,8.622536659E0
1.993011016E1,-4.740181446E0,-1.073180914E0,8.633303642E0
1.994891953E1,-4.759324074E0,-1.062413216E0,8.644071579E0
1.996772891E1,-4.747360229E0,-1.057627559E0,8.640482903E0
1.998653833E1,-4.728217602E0,-1.079162955E0,8.634500504E0
2.000534771E1,-4.758127689E0,-1.093519926E0,8.630910873E0
2.002415708E1,-4.762913704E0,-1.064806104E0,8.640482903E0
2.004296651E1,-4.749752998E0,-1.067198873E0,8.654839516E0
2.006177589E1,-4.731806755E0,-1.057627559E0,8.640482903E0
2.008058526E1,-4.701896667E0,-1.094716311E0,8.639286041E0
2.009939464E1,-4.698307037E0,-1.069591761E0,8.662017822E0
2.011820406E1,-4.698307037E0,-1.071984529E0,8.669196129E0
2.013701344E1,-4.689932346E0,-1.070788145E0,8.662017822E0
2.015582281E1,-4.685146809E0,-1.079162955E0,8.665607452E0
2.017463219E1,-4.706682205E0,-1.050449133E0,8.663214684E0
2.019344162E1,-4.730610371E0,-1.032503009E0,8.630910873E0
2.021225099E1,-4.710271358E0,-1.049252748E0,8.616554260E0
2.023106036E1,-4.716253281E0,-1.092323542E0,8.616554260E0
2.024986974E1,-4.728217602E0,-1.115055323E0,8.665607452E0
2.026867917E1,-4.650450706E0,-1.111466169E0,8.706285477E0
2.028748854E1,-4.587040901E0,-1.067198873E0,8.672785759E0
2.030629792E1,-4.553541660E0,-1.060020447E0,8.670392990E0
2.032510734E1,-4.603790760E0,-1.046859860E0,8.713463783E0
2.034391672E1,-4.656432629E0,-1.066002488E0,8.713463783E0
2.036272609E1,-4.650450706E0,-1.054038405E0,8.662017822E0
2.038153547E1,-4.633700848E0,-1.073180914E0,8.652446747E0
2.040034490E1,-4.655236244E0,-1.093519926E0,8.694320679E0
2.041915427E1,-4.685146809E0,-1.131805062E0,8.691927910E0
2.043796365E1,-4.701896667E0,-1.178465128E0,8.652446747E0
2.045677302E1,-4.685146809E0,-1.117448211E0,8.638090134E0
2.047558245E1,-4.734199524E0,-1.112662554E0,8.684749603E0
2.049439182E1,-4.762913704E0,-1.133001566E0,8.687142372E0
2.051320120E1,-4.725824833E0,-1.150947690E0,8.662017822E0
2.053201057E1,-4.638486862E0,-1.166501045E0,8.678768158E0
2.055082000E1,-4.566701889E0,-1.150947690E0,8.709874153E0
2.056962938E1,-4.551148891E0,-1.165304661E0,8.719446182E0
2.058843875E1,-4.555934429E0,-1.165304661E0,8.709874153E0
2.060724813E1,-4.528416634E0,-1.164108157E0,8.676374435E0
2.062605755E1,-4.526023865E0,-1.162911773E0,8.683553696E0
2.064486693E1,-4.551148891E0,-1.194018483E0,8.727820396E0
2.066367630E1,-4.572684288E0,-1.194018483E0,8.732605934E0
2.068248573E1,-4.557130814E0,-1.176072359E0,8.702695847E0
2.070129510E1,-4.553541660E0,-1.171286702E0,8.688339233E0
2.072010448E1,-4.549952030E0,-1.162911773E0,8.724231720E0
2.073891386E1,-4.601397991E0,-1.148554921E0,8.742177963E0
2.075772323E1,-4.604987144E0,-1.138983607E0,8.713463783E0
2.077653266E1,-4.590630054E0,-1.131805062E0,8.666803360E0
2.079534203E1,-4.600201607E0,-1.148554921E0,8.656036377E0
2.081415141E1,-4.632504463E0,-1.146162033E0,8.675178528E0
2.083296078E1,-4.661218643E0,-1.146162033E0,8.713463783E0
2.085177021E1,-4.667200565E0,-1.159322619E0,8.703892708E0
2.087057958E1,-4.625326157E0,-1.180858016E0,8.666803360E0
2.088938896E1,-4.615755081E0,-1.188036442E0,8.665607452E0
2.090819833E1,-4.584648132E0,-1.195214868E0,8.679964066E0
2.092700776E1,-4.581058979E0,-1.205982566E0,8.719446182E0
2.094581714E1,-4.543970108E0,-1.180858016E0,8.714659691E0
2.096462651E1,-4.486542225E0,-1.198804140E0,8.718249321E0
2.098343589E1,-4.457828522E0,-1.203589797E0,8.758927345E0
2.100224531E1,-4.478167534E0,-1.231107235E0,8.754141808E0
2.102105469E1,-4.453042984E0,-1.229910851E0,8.745766640E0
2.103986406E1,-4.504488468E0,-1.233500123E0,8.712266922E0
2.105867344E1,-4.547559261E0,-1.222732425E0,8.721838951E0
2.107748286E1,-4.597808838E0,-1.197607756E0,8.737391472E0
2.109629224E1,-4.618147850E0,-1.220339537E0,8.721838951E0
2.111510162E1,-4.649254322E0,-1.235892892E0,8.670392990E0
2.113391104E1,-4.646861553E0,-1.235892892E0,8.639286041E0
2.115272042E1,-4.652843475E0,-1.227517962E0,8.634500504E0
2.117152979E1,-4.651647091E0,-1.211964726E0,8.663214684E0
2.119033917E1,-4.642076015E0,-1.182054400E0,8.684749603E0
2.120914854E1,-4.601397991E0,-1.197607756E0,8.675178528E0
2.122795797E1,-4.621737003E0,-1.196411371E0,8.688339233E0
2.124676734E1,-4.621737003E0,-1.208375454E0,8.665607452E0
2.126557672E1,-4.560719967E0,-1.195214868E0,8.666803360E0
2.128438609E1,-4.540380955E0,-1.154536963E0,8.695517540E0
2.130319552E1,-4.572684288E0,-1.147358418E0,8.708678246E0
2.132200490E1,-4.606183529E0,-1.162911773E0,8.695517540E0
2.134081427E1,-4.565505505E0,-1.160519004E0,8.694320679E0
2.135962365E1,-4.535595417E0,-1.183250785E0,8.682356834E0
2.137843302E1,-4.545166492E0,-1.208375454E0,8.681160927E0
2.139724245E1,-4.577469826E0,-1.247856975E0,8.695517540E0
2.141605182E1,-4.576273441E0,-1.257428288E0,8.684749603E0
2.143486120E1,-4.619344234E0,-1.249053478E0,8.672785759E0
2.145367063E1,-4.662415028E0,-1.237089276E0,8.705088615E0
2.147248000E1,-4.642076015E0,-1.241874933E0,8.694320679E0
2.149128938E1,-4.636094093E0,-1.202393413E0,8.678768158E0
2.151009875E1,-4.656432629E0,-1.177268744E0,8.682356834E0
2.152890813E1,-4.664807796E0,-1.168893814E0,8.671588898E0
2.154771755E1,-4.698307037E0,-1.165304661E0,8.658429146E0
2.156652693E1,-4.727021217E0,-1.158126116E0,8.660821915E0
2.158533630E1,-4.752145767E0,-1.135394335E0,8.644071579E0
2.160414568E1,-4.746163845E0,-1.130608678E0,8.648857117E0
2.162295511E1,-4.746163845E0,-1.097109199E0,8.633303642E0
2.164176448E1,-4.762913704E0,-1.045663476E0,8.641678810E0
2.166057386E1,-4.747360229E0,-1.063609719E0,8.627322197E0
2.167938323E1,-4.741377831E0,-1.055234790E0,8.629714966E0
2.169819266E1,-4.730610371E0,-1.077966571E0,8.630910873E0
2.171700203E1,-4.709074974E0,-1.121037364E0,8.633303642E0
2.173581141E1,-4.691128731E0,-1.116251707E0,8.647661209E0
2.175462078E1,-4.674378872E0,-1.155733347E0,8.646464348E0
2.177343016E1,-4.674378872E0,-1.174875975E0,8.658429146E0
2.179223958E1,-4.668396950E0,-1.192822099E0,8.662017822E0
2.181104896E1,-4.642076015E0,-1.184447169E0,8.664410591E0
2.182985833E1,-4.646861553E0,-1.182054400E0,8.666803360E0
2.184866776E1,-4.645665169E0,-1.161715388E0,8.669196129E0
2.186747714E1,-4.644468784E0,-1.178465128E0,8.677571297E0
2.188628651E1,-4.660022259E0,-1.164108157E0,8.668000221E0
2.190509589E1,-4.667200565E0,-1.136590719E0,8.654839516E0
2.192390531E1,-4.670789719E0,-1.080359459E0,8.648857117E0
2.194271469E1,-4.729413986E0,-1.094716311E0,8.659625053E0
2.196152406E1,-4.697110653E0,-1.127019525E0,8.638090134E0
2.198033344E1,-4.689932346E0,-1.107876897E0,8.614161491E0
2.199914281E1,-4.687539577E0,-1.117448211E0,8.647661209E0
2.201795224E1,-4.715056896E0,-1.152144074E0,8.656036377E0
2.203676162E1,-4.717449665E0,-1.136590719E0,8.621339798E0
2.205557099E1,-4.679164886E0,-1.144965649E0,8.634500504E0
2.207438036E1,-4.680361271E0,-1.154536963E0,8.652446747E0
2.209318979E1,-4.649254322E0,-1.196411371E0,8.671588898E0
2.211199917E1,-4.655236244E0,-1.196411371E0,8.669196129E0
2.213080854E1,-4.661218643E0,-1.160519004E0,8.681160927E0
2.214961792E1,-4.674378872E0,-1.141376376E0,8.658429146E0
2.216842729E1,-4.685146809E0,-1.155733347E0,8.657232285E0
2.218723672E1,-4.688735962E0,-1.173679471E0,8.659625053E0
2.220604609E1,-4.695914268E0,-1.153340459E0,8.648857117E0
2.222485547E1,-4.685146809E0,-1.127019525E0,8.656036377E0
2.224366484E1,-4.675575256E0,-1.097109199E0,8.634500504E0
2.226247427E1,-4.679164886E0,-1.070788145E0,8.658429146E0
2.228128365E1,-4.683950424E0,-1.064806104E0,8.658429146E0
2.230009302E1,-4.676771641E0,-1.075573802E0,8.662017822E0
2.231890240E1,-4.692325115E0,-1.104287624E0,8.647661209E0
2.233771182E1,-4.705485821E0,-1.127019525E0,8.641678810E0
2.235652120E1,-4.724628448E0,-1.137787223E0,8.633303642E0
2.237533057E1,-4.724628448E0,-1.146162033E0,8.645268440E0
2.239413995E1,-4.721039295E0,-1.146162033E0,8.660821915E0
2.241294932E1,-4.710271358E0,-1.148554921E0,8.645268440E0
2.243175875E1,-4.691128731E0,-1.158126116E0,8.633303642E0
2.245056813E1,-4.705485821E0,-1.161715388E0,8.633303642E0
2.246937750E1,-4.697110653E0,-1.177268744E0,8.647661209E0
2.248818688E1,-4.693521500E0,-1.172483087E0,8.645268440E0
2.250699630E1,-4.657629490E0,-1.160519004E0,8.641678810E0
2.252580568E1,-4.666004181E0,-1.147358418E0,8.664410591E0
2.254461505E1,-4.660022259E0,-1.123430252E0,8.652446747E0
2.256342443E1,-4.679164886E0,-1.128215909E0,8.651249886E0
2.258223386E1,-4.713860512E0,-1.149751306E0,8.659625053E0
2.260104323E1,-4.707878590E0,-1.147358418E0,8.650053978E0
2.261985261E1,-4.693521500E0,-1.095912814E0,8.641678810E0
2.263866198E1,-4.693521500E0,-1.094716311E0,8.660821915E0
2.265747136E1,-4.709074974E0,-1.128215909E0,8.647661209E0
2.267628078E1,-4.707878590E0,-1.176072359E0,8.623732567E0
2.269509016E1,-4.700700283E0,-1.162911773E0,8.638090134E0
2.271389953E1,-4.706682205E0,-1.147358418E0,8.660821915E0
2.273270891E1,-4.743771076E0,-1.128215909E0,8.638090134E0
2.275151833E1,-4.728217602E0,-1.115055323E0,8.622536659E0
2.277032771E1,-4.716253281E0,-1.123430252E0,8.639286041E0
2.278913708E1,-4.699503899E0,-1.133001566E0,8.639286041E0
2.280794646E1,-4.695914268E0,-1.134197950E0,8.654839516E0
2.282675589E1,-4.679164886E0,-1.158126116E0,8.645268440E0
2.284556526E1,-4.676771641E0,-1.164108157E0,8.651249886E0
2.286437464E1,-4.694717884E0,-1.155733347E0,8.658429146E0
2.288318401E1,-4.705485821E0,-1.161715388E0,8.662017822E0
2.290199339E1,-4.677968502E0,-1.149751306E0,8.648857117E0
2.292080281E1,-4.664807796E0,-1.154536963E0,8.641678810E0
2.293961219E1,-4.675575256E0,-1.154536963E0,8.642875671E0
2.295842156E1,-4.686343193E0,-1.121037364E0,8.648857117E0
2.297723094E1,-4.700700283E0,-1.113858938E0,8.650053978E0
2.299604037E1,-4.669593334E0,-1.115055323E0,8.651249886E0
2.301484974E1,-4.698307037E0,-1.144965649E0,8.648857117E0
2.303365912E1,-4.707878590E0,-1.160519004E0,8.632107735E0
2.305246849E1,-4.729413986E0,-1.136590719E0,8.628518105E0
2.307127787E1,-4.754538536E0,-1.134197950E0,8.621339798E0
2.309008729E1,-4.729413986E0,-1.123430252E0,8.653642654E0
2.310889667E1,-4.741377831E0,-1.129412293E0,8.632107735E0
2.312770604E1,-4.712664127E0,-1.105484009E0,8.615358353E0
2.314651542E1,-4.697110653E0,-1.124626637E0,8.644071579E0
2.316532479E1,-4.705485821E0,-1.123430252E0,8.651249886E0
2.318413422E1,-4.706682205E0,-1.104287624E0,8.666803360E0
2.320294359E1,-4.681557655E0,-1.091127157E0,8.665607452E0
2.322175297E1,-4.685146809E0,-1.106680512E0,8.653642654E0
2.324056234E1,-4.695914268E0,-1.109073281E0,8.659625053E0
2.325937177E1,-4.692325115E0,-1.124626637E0,8.648857117E0
2.327818115E1,-4.694717884E0,-1.134197950E0,8.644071579E0
2.329699052E1,-4.681557655E0,-1.135394335E0,8.639286041E0
2.331579990E1,-4.705485821E0,-1.137787223E0,8.657232285E0
2.333460927E1,-4.738985062E0,-1.156929731E0,8.666803360E0
2.335341870E1,-4.738985062E0,-1.164108157E0,8.622536659E0
2.337222807E1,-4.709074974E0,-1.149751306E0,8.628518105E0
2.339103745E1,-4.691128731E0,-1.141376376E0,8.642875671E0
2.340984682E1,-4.715056896E0,-1.116251707E0,8.642875671E0
2.342865620E1,-4.731806755E0,-1.070788145E0,8.623732567E0
2.344746563E1,-4.744967461E0,-1.060020447E0,8.635697365E0
2.346627500E1,-4.734199524E0,-1.070788145E0,8.651249886E0
2.348508438E1,-4.721039295E0,-1.098305583E0,8.640482903E0
2.350389375E1,-4.701896667E0,-1.104287624E0,8.640482903E0
2.352270318E1,-4.703093052E0,-1.105484009E0,8.662017822E0
2.354151255E1,-4.706682205E0,-1.095912814E0,8.652446747E0
2.356032193E1,-4.703093052E0,-1.111466169E0,8.652446747E0
2.357913130E1,-4.670789719E0,-1.136590719E0,8.645268440E0
2.359794068E1,-4.681557655E0,-1.141376376E0,8.650053978E0
2.361675010E1,-4.669593334E0,-1.112662554E0,8.662017822E0
2.363555948E1,-4.687539577E0,-1.119840980E0,8.657232285E0
2.365436886E1,-4.681557655E0,-1.129412293E0,8.642875671E0
2.367317823E1,-4.716253281E0,-1.109073281E0,8.656036377E0
2.369198760E1,-4.717449665E0,-1.089930773E0,8.657232285E0
2.371079703E1,-4.700700283E0,-1.086341500E0,8.650053978E0
2.372960641E1,-4.704289436E0,-1.080359459E0,8.647661209E0
2.374841578E1,-4.712664127E0,-1.113858938E0,8.639286041E0
2.376722516E1,-4.707878590E0,-1.128215909E0,8.633303642E0
2.378603458E1,-4.695914268E0,-1.148554921E0,8.652446747E0
2.380484396E1,-4.695914268E0,-1.152144074E0,8.677571297E0
2.382365333E1,-4.685146809E0,-1.164108157E0,8.658429146E0
2.384246271E1,-4.663611412E0,-1.167697430E0,8.652446747E0
2.386127208E1,-4.661218643E0,-1.141376376E0,8.653642654E0
2.388008151E1,-4.669593334E0,-1.165304661E0,8.664410591E0
2.389889089E1,-4.688735962E0,-1.161715388E0,8.668000221E0
2.391770026E1,-4.671986103E0,-1.143769264E0,8.645268440E0
2.393650964E1,-4.676771641E0,-1.124626637E0,8.662017822E0
2.395531901E1,-4.686343193E0,-1.129412293E0,8.663214684E0
2.397412844E1,-4.688735962E0,-1.137787223E0,8.635697365E0
2.399293781E1,-4.680361271E0,-1.095912814E0,8.642875671E0
2.401174719E1,-4.705485821E0,-1.077966571E0,8.664410591E0
2.403055656E1,-4.712664127E0,-1.146162033E0,8.662017822E0
2.404936594E1,-4.660022259E0,-1.141376376E0,8.639286041E0
2.406817537E1,-4.637290478E0,-1.135394335E0,8.648857117E0
2.408698474E1,-4.642076015E0,-1.117448211E0,8.678768158E0
2.410579412E1,-4.669593334E0,-1.111466169E0,8.675178528E0
2.412460349E1,-4.664807796E0,-1.135394335E0,8.664410591E0
2.414341287E1,-4.667200565E0,-1.158126116E0,8.677571297E0
2.416222229E1,-4.618147850E0,-1.195214868E0,8.670392990E0
2.418103167E1,-4.572684288E0,-1.220339537E0,8.681160927E0
2.419984104E1,-4.593023300E0,-1.201196909E0,8.679964066E0
2.421865042E1,-4.607379913E0,-1.200000525E0,8.683553696E0
2.423745979E1,-4.622933388E0,-1.203589797E0,8.687142372E0
2.425626922E1,-4.648057938E0,-1.190429211E0,8.679964066E0
2.427507859E1,-4.634897232E0,-1.159322619E0,8.678768158E0
2.429388797E1,-4.619344234E0,-1.149751306E0,8.687142372E0
2.431269734E1,-4.627718925E0,-1.134197950E0,8.685946465E0
2.433150672E1,-4.631308079E0,-1.124626637E0,8.669196129E0
2.435031615E1,-4.650450706E0,-1.124626637E0,8.662017822E0
2.436912552E1,-4.622933388E0,-1.148554921E0,8.666803360E0
2.438793490E1,-4.643272400E0,-1.202393413E0,8.693124771E0
2.440674427E1,-4.651647091E0,-1.229910851E0,8.683553696E0
2.442555365E1,-4.655236244E0,-1.205982566E0,8.678768158E0
2.444436307E1,-4.660022259E0,-1.204786181E0,8.662017822E0
2.446317245E1,-4.664807796E0,-1.220339537E0,8.679964066E0
2.448198182E1,-4.625326157E0,-1.183250785E0,8.721838951E0
2.450079120E1,-4.610969067E0,-1.160519004E0,8.705088615E0
2.451960057E1,-4.552345276E0,-1.129412293E0,8.682356834E0
2.453841000E1,-4.565505505E0,-1.128215909E0,8.689535141E0
2.455721938E1,-4.588237286E0,-1.143769264E0,8.695517540E0
2.457602875E1,-4.589433670E0,-1.136590719E0,8.702695847E0
2.459483813E1,-4.628915310E0,-1.154536963E0,8.679964066E0
2.461364750E1,-4.616951466E0,-1.189232826E0,8.653642654E0
2.463245688E1,-4.643272400E0,-1.219143152E0,8.676374435E0
2.465126630E1,-4.614558697E0,-1.256231904E0,8.677571297E0
2.467007568E1,-4.616951466E0,-1.229910851E0,8.670392990E0
2.468888505E1,-4.615755081E0,-1.204786181E0,8.695517540E0
2.470769443E1,-4.624129772E0,-1.227517962E0,8.732605934E0
2.472650380E1,-4.599005222E0,-1.226321578E0,8.665607452E0
2.474531318E1,-4.533202648E0,-1.188036442E0,8.648857117E0
2.476412260E1,-4.521238327E0,-1.160519004E0,8.709874153E0
2.478293198E1,-4.559523582E0,-1.158126116E0,8.739784241E0
2.480174136E1,-4.600201607E0,-1.137787223E0,8.685946465E0
2.482055073E1,-4.616951466E0,-1.158126116E0,8.651249886E0
2.483936016E1,-4.626522541E0,-1.180858016E0,8.646464348E0
2.485816953E1,-4.644468784E0,-1.205982566E0,8.677571297E0
2.487697891E1,-4.662415028E0,-1.211964726E0,8.699107170E0
2.489578828E1,-4.668396950E0,-1.202393413E0,8.679964066E0
2.491459766E1,-4.646861553E0,-1.237089276E0,8.659625053E0
2.493340703E1,-4.650450706E0,-1.272981644E0,8.676374435E0
2.495221646E1,-4.660022259E0,-1.262213945E0,8.699107170E0
2.497102583E1,-4.621737003E0,-1.245464206E0,8.683553696E0
2.498983521E1,-4.569094658E0,-1.241874933E0,8.689535141E0
2.500864458E1,-4.591826439E0,-1.228714466E0,8.694320679E0
2.502745396E1,-4.585844517E0,-1.214357495E0,8.707481384E0
2.504626339E1,-4.583451748E0,-1.180858016E0,8.690732002E0
2.506507276E1,-4.589433670E0,-1.176072359E0,8.706285477E0
2.508388214E1,-4.559523582E0,-1.160519004E0,8.694320679E0
2.510269151E1,-4.577469826E0,-1.140179992E0,8.690732002E0
2.512150089E1,-4.608576298E0,-1.147358418E0,8.671588898E0
2.514031026E1,-4.584648132E0,-1.155733347E0,8.651249886E0
2.515911969E1,-4.626522541E0,-1.153340459E0,8.683553696E0
2.517792906E1,-4.633700848E0,-1.166501045E0,8.696713448E0
2.519673844E1,-4.601397991E0,-1.200000525E0,8.676374435E0
2.521554781E1,-4.590630054E0,-1.192822099E0,8.671588898E0
2.523435719E1,-4.602594376E0,-1.221535921E0,8.690732002E0
2.525316662E1,-4.626522541E0,-1.209571838E0,8.720642090E0
2.527197599E1,-4.608576298E0,-1.226321578E0,8.696713448E0
2.529078536E1,-4.564309120E0,-1.235892892E0,8.678768158E0
2.530959474E1,-4.575077057E0,-1.232303619E0,8.691927910E0
2.532840412E1,-4.601397991E0,-1.243071318E0,8.715856552E0
2.534721354E1,-4.601397991E0,-1.209571838E0,8.699107170E0
2.536602292E1,-4.590630054E0,-1.196411371E0,8.682356834E0
2.538483229E1,-4.620540619E0,-1.198804140E0,8.688339233E0
2.540364167E1,-4.624129772E0,-1.228714466E0,8.687142372E0
2.542245104E1,-4.649254322E0,-1.195214868E0,8.668000221E0
2.544126042E1,-4.613361835E0,-1.149751306E0,8.664410591E0
2.546006984E1,-4.628915310E0,-1.154536963E0,8.702695847E0
2.547887922E1,-4.633700848E0,-1.154536963E0,8.670392990E0
2.549768859E1,-4.615755081E0,-1.164108157E0,8.681160927E0
2.551649797E1,-4.589433670E0,-1.160519004E0,8.679964066E0
2.553530734E1,-4.599005222E0,-1.184447169E0,8.673981667E0
2.555411677E1,-4.600201607E0,-1.184447169E0,8.699107170E0
2.557292615E1,-4.616951466E0,-1.186840057E0,8.681160927E0
2.559173552E1,-4.609772682E0,-1.202393413E0,8.668000221E0
2.561054490E1,-4.621737003E0,-1.240678549E0,8.658429146E0
2.562935427E1,-4.616951466E0,-1.278963685E0,8.682356834E0
2.564816365E1,-4.619344234E0,-1.247856975E0,8.697910309E0
2.566697307E1,-4.608576298E0,-1.172483087E0,8.712266922E0
2.568578245E1,-4.591826439E0,-1.148554921E0,8.702695847E0
2.570459182E1,-4.620540619E0,-1.140179992E0,8.673981667E0
2.572340120E1,-4.645665169E0,-1.152144074E0,8.670392990E0
2.574221057E1,-4.655236244E0,-1.165304661E0,8.687142372E0
2.576102000E1,-4.655236244E0,-1.196411371E0,8.671588898E0
2.577982938E1,-4.658825874E0,-1.209571838E0,8.675178528E0
2.579863875E1,-4.654039860E0,-1.197607756E0,8.669196129E0
2.581744813E1,-4.648057938E0,-1.203589797E0,8.668000221E0
2.583625750E1,-4.628915310E0,-1.197607756E0,8.660821915E0
2.585506693E1,-4.606183529E0,-1.192822099E0,8.678768158E0
2.587387630E1,-4.609772682E0,-1.189232826E0,8.687142372E0
2.589268568E1,-4.595416069E0,-1.208375454E0,8.678768158E0
2.591149505E1,-4.607379913E0,-1.244267821E0,8.654839516E0
2.593030443E1,-4.622933388E0,-1.250249863E0,8.662017822E0
2.594911386E1,-4.654039860E0,-1.255035520E0,8.683553696E0
2.596792323E1,-4.655236244E0,-1.263410330E0,8.668000221E0
2.598673260E1,-4.640879631E0,-1.234696507E0,8.665607452E0
2.600554198E1,-4.624129772E0,-1.220339537E0,8.658429146E0
2.602435136E1,-4.630111694E0,-1.211964726E0,8.653642654E0
2.604316078E1,-4.603790760E0,-1.195214868E0,8.678768158E0
2.606197016E1,-4.640879631E0,-1.182054400E0,8.690732002E0
2.608077953E1,-4.646861553E0,-1.202393413E0,8.666803360E0
2.609958891E1,-4.618147850E0,-1.243071318E0,8.656036377E0
2.611839828E1,-4.640879631E0,-1.228714466E0,8.670392990E0
2.613720771E1,-4.636094093E0,-1.239482164E0,8.696713448E0
2.615601708E1,-4.663611412E0,-1.233500123E0,8.657232285E0
2.617482646E1,-4.640879631E0,-1.202393413E0,8.627322197E0
2.619363583E1,-4.628915310E0,-1.197607756E0,8.688339233E0
2.621244521E1,-4.634897232E0,-1.201196909E0,8.719446182E0
2.623125464E1,-4.625326157E0,-1.182054400E0,8.708678246E0
2.625006401E1,-4.602594376E0,-1.189232826E0,8.685946465E0
2.626887339E1,-4.557130814E0,-1.179661512E0,8.675178528E0
2.628768276E1,-4.589433670E0,-1.171286702E0,8.681160927E0
2.630649214E1,-4.602594376E0,-1.196411371E0,8.689535141E0
2.632530156E1,-4.607379913E0,-1.197607756E0,8.697910309E0
2.634411094E1,-4.604987144E0,-1.228714466E0,8.694320679E0
2.636292031E1,-4.607379913E0,-1.237089276E0,8.695517540E0
2.638172969E1,-4.620540619E0,-1.231107235E0,8.690732002E0
2.640053906E1,-4.619344234E0,-1.197607756E0,8.705088615E0
2.641934849E1,-4.618147850E0,-1.184447169E0,8.697910309E0
2.643815786E1,-4.572684288E0,-1.197607756E0,8.688339233E0
2.645696724E1,-4.564309120E0,-1.220339537E0,8.690732002E0
2.647577662E1,-4.578666210E0,-1.204786181E0,8.687142372E0
2.649458599E1,-4.603790760E0,-1.214357495E0,8.676374435E0
2.651339542E1,-4.609772682E0,-1.191625714E0,8.665607452E0
2.653220479E1,-4.606183529E0,-1.194018483E0,8.668000221E0
2.655101417E1,-4.599005222E0,-1.208375454E0,8.665607452E0
2.656982354E1,-4.637290478E0,-1.215553880E0,8.669196129E0
2.658863292E1,-4.627718925E0,-1.219143152E0,8.672785759E0
2.660744234E1,-4.604987144E0,-1.222732425E0,8.676374435E0
2.662625172E1,-4.606183529E0,-1.211964726E0,8.677571297E0
2.664506109E1,-4.604987144E0,-1.208375454E0,8.671588898E0
2.666387047E1,-4.585844517E0,-1.196411371E0,8.694320679E0
2.668267990E1,-4.579862595E0,-1.184447169E0,8.693124771E0
2.670148927E1,-4.600201607E0,-1.186840057E0,8.687142372E0
2.672029865E1,-4.607379913E0,-1.171286702E0,8.691927910E0
2.673910802E1,-4.602594376E0,-1.161715388E0,8.677571297E0
2.675791740E1,-4.632504463E0,-1.133001566E0,8.719446182E0
2.677672682E1,-4.667200565E0,-1.165304661E0,8.694320679E0
2.679553620E1,-4.663611412E0,-1.186840057E0,8.653642654E0
2.681434557E1,-4.642076015E0,-1.179661512E0,8.633303642E0
2.683315495E1,-4.610969067E0,-1.148554921E0,8.684749603E0
2.685196432E1,-4.669593334E0,-1.152144074E0,8.677571297E0
2.687077375E1,-4.675575256E0,-1.142572761E0,8.642875671E0
2.688958313E1,-4.661218643E0,-1.136590719E0,8.671588898E0
2.690839250E1,-4.643272400E0,-1.155733347E0,8.671588898E0
2.692720188E1,-4.654039860E0,-1.165304661E0,8.683553696E0
2.694601125E1,-4.695914268E0,-1.200000525E0,8.668000221E0
2.696482068E1,-4.693521500E0,-1.243071318E0,8.652446747E0
2.698363005E1,-4.694717884E0,-1.246660590E0,8.638090134E0
2.700243943E1,-4.664807796E0,-1.232303619E0,8.652446747E0
2.702124880E1,-4.628915310E0,-1.220339537E0,8.678768158E0
2.704005823E1,-4.571487427E0,-1.201196909E0,8.682356834E0
2.705886761E1,-4.555934429E0,-1.185643673E0,8.685946465E0
2.707767698E1,-4.596612453E0,-1.154536963E0,8.691927910E0
2.709648636E1,-4.651647091E0,-1.129412293E0,8.689535141E0
2.711529573E1,-4.668396950E0,-1.137787223E0,8.679964066E0
2.713410516E1,-4.669593334E0,-1.161715388E0,8.644071579E0
2.715291453E1,-4.651647091E0,-1.198804140E0,8.646464348E0
2.717172391E1,-4.683950424E0,-1.225125194E0,8.645268440E0
2.719053328E1,-4.688735962E0,-1.231107235E0,8.645268440E0
2.720934266E1,-4.688735962E0,-1.247856975E0,8.659625053E0
2.722815208E1,-4.657629490E0,-1.237089276E0,8.688339233E0
2.724696146E1,-4.620540619E0,-1.228714466E0,8.691927910E0
2.726577083E1,-4.566701889E0,-1.196411371E0,8.691927910E0
2.728458021E1,-4.536791801E0,-1.174875975E0,8.689535141E0
2.730338958E1,-4.530809879E0,-1.185643673E0,8.696713448E0
2.732219901E1,-4.554738045E0,-1.189232826E0,8.701499939E0
2.734100839E1,-4.578666210E0,-1.204786181E0,8.706285477E0
2.735981776E1,-4.608576298E0,-1.211964726E0,8.693124771E0
2.737862714E1,-4.613361835E0,-1.239482164E0,8.673981667E0
2.739743651E1,-4.620540619E0,-1.235892892E0,8.660821915E0
2.741624594E1,-4.621737003E0,-1.229910851E0,8.684749603E0
2.743505531E1,-4.633700848E0,-1.228714466E0,8.678768158E0
2.745386469E1,-4.625326157E0,-1.223928809E0,8.662017822E0
2.747267412E1,-4.581058979E0,-1.203589797E0,8.665607452E0
2.749148349E1,-4.606183529E0,-1.184447169E0,8.703892708E0
2.751029286E1,-4.624129772E0,-1.219143152E0,8.702695847E0
2.752910224E1,-4.602594376E0,-1.235892892E0,8.660821915E0
2.754791162E1,-4.572684288E0,-1.201196909E0,8.679964066E0
2.756672099E1,-4.571487427E0,-1.177268744E0,8.721838951E0
2.758553042E1,-4.614558697E0,-1.134197950E0,8.696713448E0
2.760433979E1,-4.626522541E0,-1.127019525E0,8.666803360E0
2.762314917E1,-4.661218643E0,-1.156929731E0,8.652446747E0
2.764195854E1,-4.676771641E0,-1.182054400E0,8.652446747E0
2.766076797E1,-4.677968502E0,-1.213161111E0,8.644071579E0
2.767957734E1,-4.700700283E0,-1.225125194E0,8.668000221E0
2.769838672E1,-4.707878590E0,-1.220339537E0,8.673981667E0
2.771719609E1,-4.670789719E0,-1.232303619E0,8.651249886E0
2.773600547E1,-4.651647091E0,-1.225125194E0,8.672785759E0
2.775481490E1,-4.644468784E0,-1.226321578E0,8.669196129E0
2.777362427E1,-4.633700848E0,-1.191625714E0,8.676374435E0
2.779243365E1,-4.628915310E0,-1.168893814E0,8.690732002E0
2.781124302E1,-4.630111694E0,-1.184447169E0,8.694320679E0
2.783005240E1,-4.638486862E0,-1.125823021E0,8.663214684E0
2.784886182E1,-4.644468784E0,-1.123430252E0,8.658429146E0
2.786767120E1,-4.699503899E0,-1.149751306E0,8.650053978E0
2.788648057E1,-4.710271358E0,-1.158126116E0,8.647661209E0
2.790528995E1,-4.688735962E0,-1.156929731E0,8.628518105E0
2.792409932E1,-4.688735962E0,-1.144965649E0,8.642875671E0
2.794290875E1,-4.675575256E0,-1.155733347E0,8.630910873E0
2.796171813E1,-4.673182487E0,-1.149751306E0,8.662017822E0
2.798052750E1,-4.680361271E0,-1.161715388E0,8.666803360E0
2.799933688E1,-4.658825874E0,-1.179661512E0,8.662017822E0
2.801814630E1,-4.656432629E0,-1.216750264E0,8.660821915E0
2.803695568E1,-4.649254322E0,-1.229910851E0,8.665607452E0
2.805576505E1,-4.649254322E0,-1.227517962E0,8.678768158E0
2.807457443E1,-4.645665169E0,-1.229910851E0,8.663214684E0
2.809338380E1,-4.651647091E0,-1.221535921E0,8.673981667E0
2.811219323E1,-4.657629490E0,-1.214357495E0,8.663214684E0
2.813100261E1,-4.667200565E0,-1.208375454E0,8.683553696E0
2.814981198E1,-4.666004181E0,-1.159322619E0,8.676374435E0
2.816862136E1,-4.660022259E0,-1.156929731E0,8.659625053E0
2.818743073E1,-4.675575256E0,-1.136590719E0,8.638090134E0
2.820624016E1,-4.681557655E0,-1.142572761E0,8.644071579E0
2.822504953E1,-4.704289436E0,-1.167697430E0,8.648857117E0
2.824385891E1,-4.711467743E0,-1.155733347E0,8.640482903E0
2.826266828E1,-4.677968502E0,-1.125823021E0,8.650053978E0
2.828147771E1,-4.651647091E0,-1.105484009E0,8.663214684E0
2.830028708E1,-4.722235680E0,-1.118644595E0,8.694320679E0
2.831909646E1,-4.709074974E0,-1.162911773E0,8.652446747E0
2.833790583E1,-4.669593334E0,-1.170090318E0,8.585447311E0
2.835671521E1,-4.628915310E0,-1.166501045E0,8.621339798E0
2.837552464E1,-4.705485821E0,-1.180858016E0,8.700303078E0
2.839433401E1,-4.718646049E0,-1.197607756E0,8.662017822E0
2.841314339E1,-4.679164886E0,-1.179661512E0,8.632107735E0
2.843195276E1,-4.656432629E0,-1.192822099E0,8.632107735E0
2.845076219E1,-4.673182487E0,-1.214357495E0,8.641678810E0
2.846957156E1,-4.693521500E0,-1.208375454E0,8.669196129E0
2.848838094E1,-4.648057938E0,-1.183250785E0,8.666803360E0
2.850719031E1,-4.602594376E0,-1.148554921E0,8.660821915E0
2.852599969E1,-4.640879631E0,-1.159322619E0,8.684749603E0
2.854480912E1,-4.638486862E0,-1.202393413E0,8.688339233E0
2.856361849E1,-4.637290478E0,-1.197607756E0,8.670392990E0
2.858242787E1,-4.636094093E0,-1.180858016E0,8.663214684E0
2.860123724E1,-4.631308079E0,-1.202393413E0,8.670392990E0
2.862004662E1,-4.634897232E0,-1.207179070E0,8.657232285E0
2.863885599E1,-4.642076015E0,-1.182054400E0,8.683553696E0
2.865766542E1,-4.630111694E0,-1.158126116E0,8.699107170E0
2.867647479E1,-4.637290478E0,-1.156929731E0,8.695517540E0
2.869528417E1,-4.632504463E0,-1.158126116E0,8.672785759E0
2.871409354E1,-4.615755081E0,-1.190429211E0,8.668000221E0
2.873290297E1,-4.615755081E0,-1.201196909E0,8.630910873E0
2.875171234E1,-4.632504463E0,-1.219143152E0,8.666803360E0
2.877052172E1,-4.669593334E0,-1.213161111E0,8.675178528E0
2.878933109E1,-4.670789719E0,-1.191625714E0,8.651249886E0
2.880814047E1,-4.655236244E0,-1.167697430E0,8.632107735E0
2.882694990E1,-4.685146809E0,-1.154536963E0,8.648857117E0
2.884575927E1,-4.650450706E0,-1.129412293E0,8.654839516E0
2.886456865E1,-4.642076015E0,-1.106680512E0,8.673981667E0
2.888337802E1,-4.657629490E0,-1.115055323E0,8.675178528E0
2.890218745E1,-4.671986103E0,-1.119840980E0,8.670392990E0
2.892099682E1,-4.669593334E0,-1.160519004E0,8.668000221E0
2.893980620E1,-4.664807796E0,-1.190429211E0,8.654839516E0
2.895861557E1,-4.670789719E0,-1.208375454E0,8.646464348E0
2.897742495E1,-4.729413986E0,-1.214357495E0,8.611768723E0
2.899623432E1,-4.729413986E0,-1.179661512E0,8.632107735E0
2.901504375E1,-4.792823792E0,-1.183250785E0,8.665607452E0
2.903385313E1,-4.797609329E0,-1.182054400E0,8.659625053E0
2.905266250E1,-4.756931305E0,-1.152144074E0,8.630910873E0
2.907147188E1,-4.691128731E0,-1.100698471E0,8.622536659E0
2.909028125E1,-4.610969067E0,-1.118644595E0,8.639286041E0
2.910909068E1,-4.603790760E0,-1.182054400E0,8.669196129E0
2.912790005E1,-4.640879631E0,-1.160519004E0,8.666803360E0
2.914670943E1,-4.618147850E0,-1.122233868E0,8.687142372E0
2.916551880E1,-4.620540619E0,-1.100698471E0,8.700303078E0
2.918432818E1,-4.616951466E0,-1.118644595E0,8.682356834E0
2.920313761E1,-4.620540619E0,-1.140179992E0,8.675178528E0
2.922194698E1,-4.619344234E0,-1.154536963E0,8.659625053E0
2.924075636E1,-4.664807796E0,-1.148554921E0,8.645268440E0
2.925956573E1,-4.740181446E0,-1.159322619E0,8.688339233E0
2.927837516E1,-4.694717884E0,-1.144965649E0,8.734998703E0
2.929718453E1,-4.621737003E0,-1.203589797E0,8.669196129E0
2.931599391E1,-4.532006264E0,-1.186840057E0,8.642875671E0
2.933480328E1,-4.577469826E0,-1.247856975E0,8.633303642E0
2.935361266E1,-4.722235680E0,-1.379462242E0,8.561519623E0
2.937242208E1,-4.748556614E0,-1.411765337E0,8.565108299E0
2.939123146E1,-4.728217602E0,-1.313659668E0,8.706285477E0
2.941004083E1,-4.792823792E0,-1.198804140E0,8.768498421E0
2.942885021E1,-4.689932346E0,-1.148554921E0,8.730213165E0
2.944765958E1,-4.570291042E0,-1.141376376E0,8.663214684E0
2.946646901E1,-4.622933388E0,-1.141376376E0,8.615358353E0
2.948527839E1,-4.709074974E0,-1.184447169E0,8.608179092E0
2.950408776E1,-4.768895626E0,-1.229910851E0,8.626125336E0
2.952289714E1,-4.747360229E0,-1.306481123E0,8.610571861E0
2.954170651E1,-4.654039860E0,-1.328016520E0,8.606983185E0
2.956051589E1,-4.638486862E0,-1.310070395E0,8.628518105E0
2.957932531E1,-4.624129772E0,-1.255035520E0,8.638090134E0
2.959813469E1,-4.630111694E0,-1.233500123E0,8.647661209E0
2.961694406E1,-4.646861553E0,-1.205982566E0,8.673981667E0
2.963575344E1,-4.636094093E0,-1.182054400E0,8.650053978E0
2.965456287E1,-4.616951466E0,-1.188036442E0,8.668000221E0
2.967337224E1,-4.661218643E0,-1.235892892E0,8.654839516E0
2.969218162E1,-4.681557655E0,-1.312463164E0,8.579465866E0
2.971099099E1,-4.677968502E0,-1.293320656E0,8.553144455E0
2.972980037E1,-4.725824833E0,-1.223928809E0,8.640482903E0
2.974860974E1,-4.804787636E0,-1.258624673E0,8.633303642E0
2.976741917E1,-4.840680122E0,-1.316052437E0,8.590232849E0
2.978622854E1,-4.762913704E0,-1.282552958E0,8.560322762E0
2.980503792E1,-4.736592293E0,-1.261017561E0,8.568697929E0
2.982384729E1,-4.869394302E0,-1.295713425E0,8.573483467E0
2.984265667E1,-4.981856823E0,-1.318445325E0,8.518448830E0
2.986146609E1,-4.923232555E0,-1.369890928E0,8.481359482E0
2.988027547E1,-4.900500774E0,-1.330409408E0,8.483752251E0
2.989908484E1,-4.904089928E0,-1.314856052E0,8.567501068E0
2.991789422E1,-4.872983456E0,-1.325623751E0,8.605786324E0
2.993670359E1,-4.803591251E0,-1.342373490E0,8.583054543E0
2.995551302E1,-4.771288395E0,-1.286142230E0,8.567501068E0
2.997432240E1,-4.719842434E0,-1.307677627E0,8.526823044E0
2.999313177E1,-4.735395908E0,-1.318445325E0,8.523234367E0
3.001194115E1,-4.633700848E0,-1.300499082E0,8.633303642E0
3.003075052E1,-4.576273441E0,-1.244267821E0,8.685946465E0
3.004955995E1,-4.569094658E0,-1.234696507E0,8.705088615E0
3.006836932E1,-4.555934429E0,-1.308874011E0,8.691927910E0
3.008717870E1,-4.499702930E0,-1.391426325E0,8.729017258E0
3.010598807E1,-4.503292084E0,-1.375872970E0,8.730213165E0
3.012479745E1,-4.616951466E0,-1.200000525E0,8.720642090E0
3.014360688E1,-4.729413986E0,-1.048056364E0,8.679964066E0
3.016241625E1,-4.770092010E0,-1.051645517E0,8.617751122E0
3.018122563E1,-4.794020176E0,-1.170090318E0,8.574680328E0
3.020003500E1,-4.865804672E0,-1.216750264E0,8.556734085E0
3.021884438E1,-4.882554531E0,-1.261017561E0,8.553144455E0
3.023765380E1,-4.905286312E0,-1.342373490E0,8.561519623E0
3.025646318E1,-4.874179840E0,-1.433300734E0,8.586644173E0
3.027527255E1,-4.785645485E0,-1.470389485E0,8.608179092E0
3.029408193E1,-4.628915310E0,-1.463211060E0,8.624929428E0
3.031289130E1,-4.491328239E0,-1.432104349E0,8.629714966E0
3.033170073E1,-4.353740692E0,-1.448854089E0,8.679964066E0
3.035051010E1,-4.326223373E0,-1.424925923E0,8.749356270E0
3.036931948E1,-4.358526230E0,-1.377069473E0,8.785248756E0
3.038812886E1,-4.408775806E0,-1.313659668E0,8.740981102E0
3.040693823E1,-4.462614059E0,-1.360319614E0,8.684749603E0
3.042574760E1,-4.487739086E0,-1.402194023E0,8.640482903E0
3.044455703E1,-4.537988186E0,-1.402194023E0,8.679964066E0
3.046336641E1,-4.625326157E0,-1.379462242E0,8.720642090E0
3.048217578E1,-4.651647091E0,-1.393819213E0,8.669196129E0
3.050098516E1,-4.582255363E0,-1.402194023E0,8.611768723E0
3.051979453E1,-4.509274483E0,-1.384247899E0,8.629714966E0
3.053860396E1,-4.553541660E0,-1.347159147E0,8.668000221E0
3.055741333E1,-4.643272400E0,-1.313659668E0,8.638090134E0
3.057622271E1,-4.668396950E0,-1.338784218E0,8.664410591E0
3.059503208E1,-4.640879631E0,-1.415354609E0,8.653642654E0
3.061384146E1,-4.571487427E0,-1.453639746E0,8.614161491E0
3.063265089E1,-4.543970108E0,-1.424925923E0,8.650053978E0
3.065146026E1,-4.577469826E0,-1.393819213E0,8.677571297E0
3.067026964E1,-4.560719967E0,-1.355534077E0,8.673981667E0
3.068907901E1,-4.561916351E0,-1.357926846E0,8.669196129E0
3.070788839E1,-4.585844517E0,-1.353141189E0,8.683553696E0
3.072669776E1,-4.581058979E0,-1.378265858E0,8.656036377E0
3.074550719E1,-4.584648132E0,-1.356730461E0,8.644071579E0
3.076431656E1,-4.601397991E0,-1.342373490E0,8.635697365E0
3.078312594E1,-4.656432629E0,-1.355534077E0,8.627322197E0
3.080193531E1,-4.713860512E0,-1.373480201E0,8.596215248E0
3.082074469E1,-4.774877548E0,-1.371087432E0,8.591429710E0
3.083955412E1,-4.803591251E0,-1.351944804E0,8.568697929E0
3.085836349E1,-4.773681164E0,-1.329213023E0,8.561519623E0
3.087717287E1,-4.770092010E0,-1.333998680E0,8.548358917E0
3.089598224E1,-4.801198483E0,-1.313659668E0,8.565108299E0
3.091479162E1,-4.810770035E0,-1.320838094E0,8.572287560E0
3.093360099E1,-4.790431023E0,-1.338784218E0,8.529216766E0
3.095241042E1,-4.802394867E0,-1.300499082E0,8.554341316E0
3.097121979E1,-4.838287354E0,-1.211964726E0,8.579465866E0
3.099002917E1,-4.827519894E0,-1.165304661E0,8.568697929E0
3.100883854E1,-4.838287354E0,-1.148554921E0,8.598608017E0
3.102764792E1,-4.792823792E0,-1.159322619E0,8.573483467E0
3.104645734E1,-4.815555573E0,-1.185643673E0,8.514859200E0
3.106526672E1,-4.831109047E0,-1.205982566E0,8.557929993E0
3.108407609E1,-4.832305431E0,-1.215553880E0,8.590232849E0
3.110288547E1,-4.875376225E0,-1.182054400E0,8.549555779E0
3.112169484E1,-4.924428940E0,-1.214357495E0,8.495717049E0
3.114050422E1,-4.913661480E0,-1.215553880E0,8.520841599E0
3.115931365E1,-4.968696117E0,-1.211964726E0,8.481359482E0
3.117812302E1,-4.953142643E0,-1.228714466E0,8.449056625E0
3.119693240E1,-4.980660439E0,-1.208375454E0,8.476573944E0
3.121574177E1,-4.961517811E0,-1.180858016E0,8.500502586E0
3.123455115E1,-4.975874901E0,-1.162911773E0,8.475378036E0
3.125336057E1,-4.955535889E0,-1.088734269E0,8.478966713E0
3.127216995E1,-4.928018093E0,-1.121037364E0,8.480163574E0
3.129097932E1,-5.030909538E0,-1.107876897E0,8.421539307E0
3.130978870E1,-5.053641319E0,-1.050449133E0,8.465806961E0
3.132859807E1,-5.071587563E0,-1.014556766E0,8.482556343E0
3.134740745E1,-5.040481091E0,-9.667003751E-1,8.471788406E0
3.136621688E1,-5.050052166E0,-9.008977413E-1,8.489734650E0
3.138502625E1,-5.071587563E0,-8.422735929E-1,8.493324280E0
3.140383563E1,-5.067998409E0,-8.123632669E-1,8.469395638E0
3.142264500E1,-5.075176716E0,-7.692924738E-1,8.455039024E0
3.144145438E1,-5.107480049E0,-7.704889178E-1,8.447860718E0
3.146026380E1,-5.050052166E0,-8.087740541E-1,8.402397156E0
3.147907318E1,-5.077569485E0,-8.889335990E-1,8.392825127E0
3.149788255E1,-5.249852657E0,-9.068797827E-1,8.396414757E0
3.151669193E1,-5.242674351E0,-8.901300430E-1,8.475378036E0
3.153550130E1,-5.179264545E0,-8.458628058E-1,8.427521706E0
3.155431068E1,-5.156532764E0,-8.650053740E-1,8.338987350E0
3.157312005E1,-5.123033047E0,-8.877372146E-1,8.382058144E0
3.159192948E1,-5.107480049E0,-9.858429432E-1,8.397610664E0
3.161073886E1,-5.105087280E0,-1.038485050E0,8.456234932E0
3.162954823E1,-5.142175674E0,-1.002592683E0,8.461020470E0
3.164835760E1,-5.139782906E0,-8.973084688E-1,8.478966713E0
3.166716698E1,-5.181657314E0,-8.315058947E-1,8.431110382E0
3.168597641E1,-5.231906891E0,-8.039883971E-1,8.404789925E0
3.170478578E1,-5.215157032E0,-7.860422134E-1,8.408378601E0
3.172359516E1,-5.161318302E0,-7.417750359E-1,8.386843681E0
3.174240453E1,-5.130211830E0,-7.046862841E-1,8.373682976E0
3.176121391E1,-5.120640278E0,-6.867401004E-1,8.386843681E0
3.178002328E1,-5.181657314E0,-6.999006271E-1,8.394021988E0
3.179883266E1,-5.201996326E0,-7.489534616E-1,8.398807526E0
3.181764208E1,-5.242674351E0,-7.944171429E-1,8.366504669E0
3.183645146E1,-5.264209747E0,-7.884350419E-1,8.403593063E0
3.185526083E1,-5.245067120E0,-7.836494446E-1,8.391629219E0
3.187407021E1,-5.216353416E0,-7.752745152E-1,8.366504669E0
3.189287958E1,-5.155336380E0,-8.039883971E-1,8.374878883E0
3.191168896E1,-5.167300701E0,-8.243274093E-1,8.392825127E0
3.193049839E1,-5.174479008E0,-8.494520187E-1,8.396414757E0
3.194930776E1,-5.199603558E0,-8.542376757E-1,8.467002869E0
3.196811714E1,-5.164907455E0,-8.841479421E-1,8.452646255E0
3.198692651E1,-5.157729149E0,-9.008977413E-1,8.398807526E0
3.200573589E1,-5.124229908E0,-9.439685345E-1,8.394021988E0
3.202454531E1,-5.118247509E0,-9.595218897E-1,8.410771370E0
3.204335469E1,-5.120640278E0,-9.044869542E-1,8.390432358E0
3.206216406E1,-5.146961689E0,-8.685946465E-1,8.398807526E0
3.208097344E1,-5.194818020E0,-8.542376757E-1,8.392825127E0
3.209978281E1,-5.194818020E0,-7.680960894E-1,8.455039024E0
3.211859219E1,-5.130211830E0,-7.585247755E-1,8.437092781E0
3.213740156E1,-5.138586521E0,-7.250252366E-1,8.419146538E0
3.215621099E1,-5.124229908E0,-7.202396393E-1,8.427521706E0
3.217502036E1,-5.123033047E0,-7.286145091E-1,8.409575462E0
3.219382974E1,-5.140979290E0,-7.525427341E-1,8.395217896E0
3.221263912E1,-5.129015446E0,-7.968099117E-1,8.384450912E0
3.223144849E1,-5.125426292E0,-8.434699774E-1,8.405985832E0
3.225025786E1,-5.123033047E0,-8.434699774E-1,8.434700012E0
3.226906729E1,-5.151747227E0,-8.841479421E-1,8.416753769E0
3.228787667E1,-5.190032482E0,-8.985049129E-1,8.413164139E0
3.230668604E1,-5.192425251E0,-9.188438654E-1,8.397610664E0
3.232549542E1,-5.157729149E0,-9.128618240E-1,8.403593063E0
3.234430479E1,-5.154139996E0,-9.272187948E-1,8.409575462E0
3.236311417E1,-5.157729149E0,-9.032905698E-1,8.422736168E0
3.238192354E1,-5.120640278E0,-9.272187948E-1,8.420342445E0
3.240073297E1,-5.102694511E0,-9.355936646E-1,8.403593063E0
3.241954234E1,-5.127819061E0,-9.236295223E-1,8.394021988E0
3.243835172E1,-5.144568920E0,-9.332008362E-1,8.420342445E0
3.245716109E1,-5.145765305E0,-9.415757060E-1,8.452646255E0
3.247597047E1,-5.117051125E0,-9.260223508E-1,8.449056625E0
3.249477990E1,-5.079962254E0,-9.403793216E-1,8.433503151E0
3.251358927E1,-5.060820103E0,-9.547362328E-1,8.428717613E0
3.253239865E1,-5.059623718E0,-9.631111026E-1,8.438288689E0
3.255120802E1,-5.067998409E0,-9.547362328E-1,8.433503151E0
3.257001740E1,-5.097908497E0,-9.343972206E-1,8.447860718E0
3.258882677E1,-5.078765869E0,-8.817551732E-1,8.445467949E0
3.260763615E1,-5.065605640E0,-8.518448472E-1,8.459824562E0
3.262644557E1,-5.060820103E0,-8.398807645E-1,8.484949112E0
3.264525495E1,-5.064409256E0,-8.685946465E-1,8.447860718E0
3.266406432E1,-5.032105923E0,-8.853443861E-1,8.456234932E0
3.268287370E1,-5.017749310E0,-9.415757060E-1,8.490931511E0
3.270168307E1,-5.027320385E0,-9.978070259E-1,8.464610100E0
3.272049245E1,-5.030909538E0,-1.006181955E0,8.464610100E0
3.273930182E1,-5.035695076E0,-9.738788009E-1,8.446663857E0
3.275811125E1,-5.017749310E0,-9.499505758E-1,8.500502586E0
3.277692063E1,-5.067998409E0,-9.224331379E-1,8.455039024E0
3.279573000E1,-5.106283665E0,-9.140582681E-1,8.417949677E0
3.281453938E1,-5.102694511E0,-9.308080077E-1,8.458627701E0
3.283334875E1,-5.060820103E0,-9.714859724E-1,8.456234932E0
3.285215813E1,-5.067998409E0,-9.631111026E-1,8.425128937E0
3.287096750E1,-5.064409256E0,-9.750752449E-1,8.445467949E0
3.288977693E1,-5.056034088E0,-9.367900491E-1,8.456234932E0
3.290858630E1,-5.103890896E0,-9.463613629E-1,8.468199730E0
3.292739568E1,-5.115854740E0,-9.834501147E-1,8.477770805E0
3.294620505E1,-5.029713154E0,-1.019342422E0,8.428717613E0
3.296501443E1,-4.984249592E0,-9.894321561E-1,8.427521706E0
3.298382380E1,-4.979464054E0,-9.320043921E-1,8.475378036E0
3.300263318E1,-5.024927616E0,-9.056833982E-1,8.482556343E0
3.302144261E1,-5.048855782E0,-9.140582681E-1,8.493324280E0
3.304025198E1,-5.054837704E0,-9.068797827E-1,8.434700012E0
3.305906136E1,-5.016552448E0,-9.284151793E-1,8.415556908E0
3.307787073E1,-5.064409256E0,-9.164510965E-1,8.443074226E0
3.309668011E1,-5.088337421E0,-9.427721500E-1,8.445467949E0
3.311548948E1,-5.053641319E0,-9.631111026E-1,8.431110382E0
3.313429886E1,-5.071587563E0,-9.738788009E-1,8.420342445E0
3.315310828E1,-5.054837704E0,-1.007378340E0,8.434700012E0
3.317191766E1,-5.095515728E0,-1.028913736E0,8.426324844E0
3.319072703E1,-5.140979290E0,-1.009771109E0,8.416753769E0
3.320953641E1,-5.157729149E0,-1.021735311E0,8.425128937E0
3.322834578E1,-5.134997368E0,-1.002592683E0,8.417949677E0
3.324715516E1,-5.121836662E0,-9.762716293E-1,8.425128937E0
3.326596453E1,-5.119443893E0,-9.978070259E-1,8.416753769E0
3.328477391E1,-5.102694511E0,-1.008574724E0,8.410771370E0
3.330358333E1,-5.125426292E0,-9.990034699E-1,8.420342445E0
3.332239271E1,-5.160121918E0,-9.858429432E-1,8.409575462E0
3.334120208E1,-5.166104317E0,-9.846464992E-1,8.396414757E0
3.336001146E1,-5.167300701E0,-9.702895880E-1,8.373682976E0
3.337882083E1,-5.194818020E0,-9.367900491E-1,8.359326363E0
3.339763021E1,-5.217549801E0,-9.188438654E-1,8.383254051E0
3.341643958E1,-5.235496044E0,-9.343972206E-1,8.356932640E0
3.343524901E1,-5.279763222E0,-9.296116233E-1,8.315058708E0
3.345405839E1,-5.247459888E0,-9.379864931E-1,8.337790489E0
3.347286776E1,-5.212764263E0,-9.176474810E-1,8.396414757E0
3.349167714E1,-5.235496044E0,-8.877372146E-1,8.355736732E0
3.351048651E1,-5.267798901E0,-8.721838593E-1,8.348558426E0
3.352929589E1,-5.272584915E0,-8.805587292E-1,8.353343964E0
3.354810526E1,-5.225924492E0,-8.997012973E-1,8.358129501E0
3.356691464E1,-5.160121918E0,-9.631111026E-1,8.350951195E0
3.358572406E1,-5.162514687E0,-9.272187948E-1,8.379665375E0
3.360453344E1,-5.152943611E0,-9.128618240E-1,8.370093346E0
3.362334281E1,-5.223531723E0,-8.315058947E-1,8.390432358E0
3.364215219E1,-5.283352375E0,-7.764709592E-1,8.395217896E0
3.366096156E1,-5.245067120E0,-7.549355626E-1,8.367700577E0
3.367977094E1,-5.200799942E0,-8.075776696E-1,8.316255569E0
3.369858031E1,-5.257031441E0,-8.243274093E-1,8.323433876E0
3.371738969E1,-5.285745144E0,-8.207381964E-1,8.366504669E0
3.373619912E1,-5.288137913E0,-7.716853023E-1,8.347361565E0
3.375500849E1,-5.313262463E0,-7.094719410E-1,8.309076309E0
3.377381787E1,-5.324030399E0,-6.891329288E-1,8.246863365E0
3.379262724E1,-5.423332691E0,-6.975077987E-1,8.252845764E0
3.381143662E1,-5.507081509E0,-6.831508875E-1,8.286344528E0
3.383024599E1,-5.540580750E0,-6.556333899E-1,8.248059273E0
3.384905537E1,-5.471189022E0,-6.699903607E-1,8.212167740E0
3.386786474E1,-5.428118229E0,-7.214360237E-1,8.169096947E0
3.388667412E1,-5.418546677E0,-6.855437160E-1,8.313861847E0
3.390548354E1,-5.352744102E0,-6.544370055E-1,8.414361000E0
3.392429292E1,-5.332405090E0,-5.587241054E-1,8.390432358E0
3.394310229E1,-5.261816978E0,-5.479564071E-1,8.283951759E0
3.396191167E1,-5.191228867E0,-6.723831892E-1,8.232506752E0
3.398072104E1,-5.268995285E0,-7.369893789E-1,8.299505234E0
3.399953042E1,-5.334797859E0,-7.453642488E-1,8.362915039E0
3.401833979E1,-5.428118229E0,-7.657032609E-1,8.312665939E0
3.403714922E1,-5.462814331E0,-7.704889178E-1,8.285148621E0
3.405595859E1,-5.447260857E0,-7.465606928E-1,8.331808090E0
3.407476797E1,-5.395814896E0,-7.345965505E-1,8.341380119E0
3.409357734E1,-5.304887772E0,-7.214360237E-1,8.298309326E0
3.411238672E1,-5.295316696E0,-7.429714203E-1,8.254041672E0
3.413119609E1,-5.307280540E0,-7.680960894E-1,8.280363083E0
3.415000547E1,-5.369493961E0,-7.501499057E-1,8.300702095E0
3.416881484E1,-5.446064472E0,-6.891329288E-1,8.317451477E0
3.418762422E1,-5.422136307E0,-6.747759581E-1,8.335397720E0
3.420643365E1,-5.487938881E0,-5.862415433E-1,8.262416840E0
3.422524302E1,-5.513063431E0,-5.479564071E-1,8.264809608E0
3.424405240E1,-5.453242779E0,-6.125625968E-1,8.394021988E0
3.426286177E1,-5.334797859E0,-6.999006271E-1,8.318648338E0
3.428167115E1,-5.216353416E0,-6.424728632E-1,8.303094864E0
3.430048052E1,-5.284548759E0,-5.599204898E-1,8.200202942E0
3.431928990E1,-5.386243820E0,-4.666004181E-1,8.184649467E0
3.433809927E1,-5.149354458E0,-5.934200287E-1,8.242077827E0
3.435690865E1,-5.544169903E0,-5.850451589E-1,8.281558990E0
3.437571802E1,-5.666203976E0,-4.666004181E-1,8.327022552E0
3.439452745E1,-5.491528034E0,-4.761717021E-1,8.293522835E0
3.441333682E1,-5.248656273E0,-5.072783828E-1,8.221738815E0
3.443214620E1,-5.339583874E0,-4.666004181E-1,8.225327492E0
3.445095557E1,-5.395814896E0,-5.300102234E-1,8.286344528E0
3.446976495E1,-5.474778175E0,-5.563312769E-1,8.309076309E0
3.448857432E1,-5.479563713E0,-5.754738450E-1,8.262416840E0
3.450738370E1,-5.363512039E0,-5.718846321E-1,8.206185341E0
3.452619307E1,-5.273781300E0,-5.587241054E-1,8.233702660E0
3.454500245E1,-5.341976643E0,-5.551348329E-1,8.258827209E0
3.456381188E1,-5.431707382E0,-5.587241054E-1,8.342576027E0
3.458262125E1,-5.406582832E0,-5.850451589E-1,8.350951195E0
3.460143063E1,-5.278566837E0,-5.874379873E-1,8.261219978E0
3.462024000E1,-5.261816978E0,-6.448656917E-1,8.237292290E0
3.463904938E1,-5.397011280E0,-6.735795736E-1,8.251648903E0
3.465785875E1,-5.541777134E0,-7.262216806E-1,8.256434441E0
3.467666813E1,-5.565705299E0,-7.441678643E-1,8.215756416E0
3.469547750E1,-5.556134224E0,-6.520441771E-1,8.207381248E0
3.471428688E1,-5.569294930E0,-5.527420044E-1,8.176275253E0
3.473309625E1,-5.520241737E0,-5.479564071E-1,8.207381248E0
3.475190568E1,-5.575276852E0,-4.402793646E-1,8.181060791E0
3.477071505E1,-5.617151260E0,-3.158525825E-1,8.185846329E0
3.478952443E1,-5.541777134E0,-3.278166950E-1,8.233702660E0
3.480833380E1,-5.528616905E0,-4.534398913E-1,8.206185341E0
3.482714318E1,-5.487938881E0,-4.534398913E-1,8.221738815E0
3.484595255E1,-5.399404526E0,-4.402793646E-1,8.220541954E0
3.486476193E1,-5.357530117E0,-5.096712112E-1,8.242077827E0
3.488357130E1,-5.394618511E0,-5.838487148E-1,8.291130066E0
3.490238073E1,-5.432903767E0,-6.329016089E-1,8.266005516E0
3.492119010E1,-5.474778175E0,-6.293123364E-1,8.270791054E0
3.493999948E1,-5.438885689E0,-6.975077987E-1,8.276773453E0
3.495880886E1,-5.365904808E0,-7.573283911E-1,8.287541389E0
3.497761823E1,-5.339583874E0,-7.740781307E-1,8.251648903E0
3.499642760E1,-5.414957523E0,-6.879364848E-1,8.234899521E0
3.501523698E1,-5.485546112E0,-6.281159520E-1,8.274380684E0
3.503404636E1,-5.514259815E0,-6.089733839E-1,8.224131584E0
3.505285573E1,-5.489135265E0,-6.364908218E-1,8.221738815E0
3.507166510E1,-5.454439163E0,-5.922235847E-1,8.228917122E0
3.509047453E1,-5.492724419E0,-5.407779217E-1,8.225327492E0
3.510928391E1,-5.525027275E0,-5.048855543E-1,8.222934723E0
3.512809328E1,-5.504688263E0,-4.965106845E-1,8.220541954E0
3.514690266E1,-5.525027275E0,-4.953143001E-1,8.199007034E0
3.516571203E1,-5.514259815E0,-4.989035130E-1,8.201399803E0
3.518452141E1,-5.485546112E0,-4.510470629E-1,8.189435959E0
3.520333078E1,-5.491528034E0,-4.498506486E-1,8.228917122E0
3.522214016E1,-5.497509956E0,-4.941178858E-1,8.215756416E0
3.524094953E1,-5.458028316E0,-5.228317380E-1,8.199007034E0
3.525975891E1,-5.452046394E0,-5.216353536E-1,8.228917122E0
3.527856828E1,-5.456831932E0,-5.407779217E-1,8.270791054E0
3.529737771E1,-5.481956482E0,-5.324030519E-1,8.227720261E0
3.531618708E1,-5.465207100E0,-5.455635786E-1,8.189435959E0
3.533499646E1,-5.481956482E0,-5.551348329E-1,8.201399803E0
3.535380583E1,-5.479563713E0,-5.455635786E-1,8.201399803E0
3.537261521E1,-5.510670662E0,-5.204389095E-1,8.200202942E0
3.539142458E1,-5.492724419E0,-4.989035130E-1,8.220541954E0
3.541023396E1,-5.497509956E0,-5.024927258E-1,8.164310455E0
3.542904333E1,-5.515456200E0,-5.395814776E-1,8.151150703E0
3.544785271E1,-5.493920803E0,-5.264210105E-1,8.209774017E0
3.546666208E1,-5.504688263E0,-5.670989752E-1,8.249256134E0
3.548547146E1,-5.563312531E0,-5.539384484E-1,8.212167740E0
3.550428089E1,-5.674578667E0,-5.790630579E-1,8.220541954E0
3.552309026E1,-5.600401402E0,-6.197410822E-1,8.208578110E0
3.554189964E1,-5.521438122E0,-5.994020700E-1,8.163114548E0
3.556070901E1,-5.380261898E0,-5.742774606E-1,8.224131584E0
3.557951839E1,-5.404190063E0,-5.383850932E-1,8.266005516E0
3.559832776E1,-5.546562672E0,-4.989035130E-1,8.227720261E0
3.561713714E1,-5.531009674E0,-5.072783828E-1,8.238488197E0
3.563594651E1,-5.417350292E0,-5.120640397E-1,8.219346046E0
3.565475589E1,-5.395814896E0,-5.204389095E-1,8.213363647E0
3.567356526E1,-5.435296535E0,-5.120640397E-1,8.245666504E0
3.569237464E1,-5.437689304E0,-5.168496966E-1,8.246863365E0
3.571118406E1,-5.496313572E0,-5.359922647E-1,8.208578110E0
3.572999344E1,-5.536991596E0,-5.515456200E-1,8.224131584E0
3.574880281E1,-5.637490273E0,-6.029912829E-1,8.240880966E0
3.576761219E1,-5.588437080E0,-6.113662124E-1,8.226524353E0
3.578642156E1,-5.523830891E0,-6.269195080E-1,8.153543472E0
3.580523094E1,-5.520241737E0,-5.970092416E-1,8.182256699E0
3.582404031E1,-5.458028316E0,-5.754738450E-1,8.252845764E0
3.584284969E1,-5.517848969E0,-5.491527915E-1,8.233702660E0
3.586165906E1,-5.474778175E0,-5.994020700E-1,8.233702660E0
3.588046844E1,-5.420939922E0,-5.790630579E-1,8.214560509E0
3.589927781E1,-5.428118229E0,-5.371887088E-1,8.274380684E0
3.591808719E1,-5.466403484E0,-4.833501875E-1,8.263612747E0
3.593689662E1,-5.545366287E0,-5.240281820E-1,8.230113029E0
3.595570599E1,-5.475974560E0,-5.467599630E-1,8.196614265E0
3.597451536E1,-5.420939922E0,-4.917250574E-1,8.188239098E0
3.599332474E1,-5.413761139E0,-4.761717021E-1,8.215756416E0
3.601213412E1,-5.507081509E0,-5.060819983E-1,8.179863930E0
3.603094349E1,-5.589633465E0,-5.611169338E-1,8.230113029E0
3.604975286E1,-5.580062389E0,-5.754738450E-1,8.228917122E0
3.606856224E1,-5.554937840E0,-6.161518097E-1,8.178668022E0
3.608737162E1,-5.496313572E0,-6.101697683E-1,8.171489716E0
3.610618099E1,-5.513063431E0,-5.850451589E-1,8.201399803E0
3.612499036E1,-5.485546112E0,-5.826523304E-1,8.258827209E0
3.614379974E1,-5.441278458E0,-5.335994363E-1,8.254041672E0
3.616260917E1,-5.454439163E0,-5.024927258E-1,8.188239098E0
3.618141854E1,-5.484349728E0,-5.144568682E-1,8.218149185E0
3.620022792E1,-5.527420521E0,-5.551348329E-1,8.268398285E0
3.621903729E1,-5.485546112E0,-5.335994363E-1,8.260024071E0
3.623784667E1,-5.374279499E0,-5.120640397E-1,8.224131584E0
3.625665604E1,-5.355136871E0,-5.347958803E-1,8.228917122E0
3.627546542E1,-5.429314613E0,-5.335994363E-1,8.221738815E0
3.629427479E1,-5.497509956E0,-5.252245665E-1,8.249256134E0
3.631308417E1,-5.513063431E0,-5.204389095E-1,8.298309326E0
3.633189354E1,-5.508277893E0,-5.515456200E-1,8.194221497E0
3.635070292E1,-5.481956482E0,-5.551348329E-1,8.142775536E0
3.636951234E1,-5.528616905E0,-5.479564071E-1,8.171489716E0
3.638832172E1,-5.609972477E0,-4.917250574E-1,8.187042236E0
3.640713109E1,-5.653043270E0,-4.809573591E-1,8.201399803E0
3.642594047E1,-5.572884083E0,-5.144568682E-1,8.181060791E0
3.644474984E1,-5.484349728E0,-5.551348329E-1,8.239685059E0
3.646355922E1,-5.330012321E0,-5.718846321E-1,8.298309326E0
3.648236859E1,-5.239085197E0,-5.587241054E-1,8.329415321E0
3.650117797E1,-5.289334297E0,-5.551348329E-1,8.301898003E0
3.651998734E1,-5.386243820E0,-5.539384484E-1,8.295916557E0
3.653879672E1,-5.430510998E0,-5.491527915E-1,8.276773453E0
3.655760609E1,-5.446064472E0,-5.407779217E-1,8.227720261E0
3.657641547E1,-5.495117188E0,-5.335994363E-1,8.220541954E0
3.659522484E1,-5.503491879E0,-5.288137794E-1,8.298309326E0
3.661403427E1,-5.525027275E0,-4.953143001E-1,8.260024071E0
3.663284365E1,-5.511867046E0,-4.869394004E-1,8.219346046E0
3.665165302E1,-5.492724419E0,-5.180460811E-1,8.227720261E0
3.667046240E1,-5.472385406E0,-5.431707501E-1,8.201399803E0
3.668927177E1,-5.520241737E0,-5.216353536E-1,8.194221497E0
3.670808115E1,-5.532206059E0,-5.036891699E-1,8.228917122E0
3.672689052E1,-5.477170944E0,-5.551348329E-1,8.206185341E0
3.674569990E1,-5.449653625E0,-5.670989752E-1,8.160721779E0
3.676450927E1,-5.469992638E0,-5.419743061E-1,8.227720261E0
3.678331865E1,-5.480760098E0,-5.264210105E-1,8.286344528E0
3.680212802E1,-5.411368370E0,-5.168496966E-1,8.227720261E0
3.682093740E1,-5.349154949E0,-5.742774606E-1,8.226524353E0
3.683974682E1,-5.278566837E0,-6.424728632E-1,8.329415321E0
3.685855620E1,-5.356333256E0,-6.484549642E-1,8.335397720E0
3.687736557E1,-5.363512039E0,-6.376872063E-1,8.289934158E0
3.689617495E1,-5.340780258E0,-6.269195080E-1,8.307880402E0
3.691498432E1,-5.257031441E0,-6.604190469E-1,8.386843681E0
3.693379370E1,-5.205585480E0,-7.310073376E-1,8.356932640E0
3.695260307E1,-5.237888813E0,-7.154539824E-1,8.287541389E0
3.697141245E1,-5.328815937E0,-6.544370055E-1,8.298309326E0
3.699022182E1,-5.358726501E0,-6.448656917E-1,8.331808090E0
3.700903120E1,-5.377869129E0,-6.424728632E-1,8.337790489E0
3.702784057E1,-5.371886730E0,-6.508477330E-1,8.279166222E0
3.704664995E1,-5.441278458E0,-6.520441771E-1,8.219346046E0
3.706545932E1,-5.437689304E0,-6.352944374E-1,8.256434441E0
3.708426870E1,-5.416153908E0,-5.838487148E-1,8.283951759E0
3.710307813E1,-5.426921844E0,-5.850451589E-1,8.243273735E0
3.712188750E1,-5.405386448E0,-6.352944374E-1,8.248059273E0
3.714069688E1,-5.388636589E0,-7.082754970E-1,8.263612747E0
3.715950625E1,-5.394618511E0,-7.692924738E-1,8.289934158E0
3.717831563E1,-5.428118229E0,-7.298108935E-1,8.273183823E0
3.719712500E1,-5.465207100E0,-6.699903607E-1,8.237292290E0
3.721593438E1,-5.394618511E0,-6.257231236E-1,8.254041672E0
3.723474375E1,-5.391029358E0,-6.017948985E-1,8.256434441E0
3.725355313E1,-5.371886730E0,-5.778666735E-1,8.292326927E0
3.727236250E1,-5.369493961E0,-5.850451589E-1,8.304290771E0
3.729117188E1,-5.312066078E0,-5.826523304E-1,8.292326927E0
3.730998125E1,-5.340780258E0,-6.197410822E-1,8.245666504E0
3.732879063E1,-5.371886730E0,-6.963114142E-1,8.270791054E0
3.734760005E1,-5.392225742E0,-8.087740541E-1,8.293522835E0
3.736640943E1,-5.408975601E0,-8.183453679E-1,8.303094864E0
3.738521880E1,-5.406582832E0,-7.752745152E-1,8.306683540E0
3.740402818E1,-5.388636589E0,-7.381857634E-1,8.298309326E0
3.742283755E1,-5.326423168E0,-6.951149702E-1,8.293522835E0
3.744164693E1,-5.334797859E0,-7.070791125E-1,8.279166222E0
3.746045630E1,-5.340780258E0,-7.166503668E-1,8.299505234E0
3.747926568E1,-5.436492920E0,-6.843472719E-1,8.276773453E0
3.749807505E1,-5.426921844E0,-7.130611539E-1,8.307880402E0
3.751688443E1,-5.434100151E0,-7.070791125E-1,8.299505234E0
3.753569380E1,-5.454439163E0,-6.999006271E-1,8.256434441E0
3.755450318E1,-5.459224701E0,-6.795616150E-1,8.244470596E0
3.757331261E1,-5.424529076E0,-6.628118753E-1,8.250452042E0
3.759212198E1,-5.398207664E0,-6.125625968E-1,8.270791054E0
3.761093136E1,-5.434100151E0,-5.288137794E-1,8.225327492E0
3.762974073E1,-5.452046394E0,-5.156532526E-1,8.262416840E0
3.764855011E1,-5.442475319E0,-5.204389095E-1,8.324629784E0
3.766735948E1,-5.389832973E0,-5.491527915E-1,8.324629784E0
3.768616886E1,-5.338387489E0,-5.766702294E-1,8.313861847E0
3.770497823E1,-5.365904808E0,-6.221339107E-1,8.258827209E0
3.772378761E1,-5.386243820E0,-6.604190469E-1,8.244470596E0
3.774259698E1,-5.380261898E0,-6.783652306E-1,8.286344528E0
3.776140636E1,-5.383851051E0,-7.154539824E-1,8.317451477E0
3.778021573E1,-5.350351334E0,-7.704889178E-1,8.286344528E0
3.779902511E1,-5.308476925E0,-8.267202377E-1,8.285148621E0
3.781783448E1,-5.242674351E0,-8.721838593E-1,8.344968796E0
3.783664386E1,-5.240281582E0,-8.913264275E-1,8.346165657E0
3.785545323E1,-5.277370453E0,-8.829515576E-1,8.344968796E0
3.787426266E1,-5.196014404E0,-8.757730722E-1,8.318648338E0
3.789307203E1,-5.157729149E0,-8.410771489E-1,8.364111900E0
3.791188141E1,-5.180460930E0,-8.518448472E-1,8.355736732E0
3.793069078E1,-5.248656273E0,-8.386843204E-1,8.354539871E0
3.794950016E1,-5.241477966E0,-8.374879360E-1,8.352147102E0
3.796830953E1,-5.241477966E0,-8.195417523E-1,8.342576027E0
3.798711891E1,-5.257031441E0,-7.980063558E-1,8.361719131E0
3.800592828E1,-5.266602516E0,-7.704889178E-1,8.358129501E0
3.802473766E1,-5.274977684E0,-7.692924738E-1,8.354539871E0
3.804354703E1,-5.229514122E0,-7.597211599E-1,8.346165657E0
3.806235641E1,-5.210371494E0,-7.884350419E-1,8.335397720E0
3.808116578E1,-5.253442287E0,-8.051848412E-1,8.333004951E0
3.809997521E1,-5.310869694E0,-8.039883971E-1,8.336593628E0
3.811878458E1,-5.290530682E0,-8.291130662E-1,8.327022552E0
3.813759396E1,-5.260620594E0,-8.482556343E-1,8.344968796E0
3.815640333E1,-5.229514122E0,-8.195417523E-1,8.356932640E0
3.817521271E1,-5.228317261E0,-8.111668825E-1,8.376075745E0
3.819402208E1,-5.261816978E0,-8.087740541E-1,8.353343964E0
3.821283146E1,-5.243870735E0,-8.255237937E-1,8.362915039E0
3.823164083E1,-5.259424210E0,-8.075776696E-1,8.353343964E0
3.825045021E1,-5.217549801E0,-7.920243144E-1,8.370093346E0
3.826925958E1,-5.224728107E0,-7.968099117E-1,8.341380119E0
3.828806896E1,-5.237888813E0,-8.195417523E-1,8.378468513E0
3.830687833E1,-5.265406132E0,-8.650053740E-1,8.419146538E0
3.832568771E1,-5.272584915E0,-8.709874153E-1,8.373682976E0
3.834449708E1,-5.187639713E0,-9.415757060E-1,8.331808090E0
3.836330651E1,-5.186442852E0,-9.882357717E-1,8.347361565E0
3.838211583E1,-5.233103275E0,-9.379864931E-1,8.400003433E0
3.840092526E1,-5.272584915E0,-8.973084688E-1,8.396414757E0
3.841973464E1,-5.257031441E0,-8.889335990E-1,8.383254051E0
3.843854401E1,-5.091926575E0,-8.937192559E-1,8.416753769E0
3.845735339E1,-5.035695076E0,-9.248259664E-1,8.433503151E0
3.847616276E1,-5.032105923E0,-8.889335990E-1,8.456234932E0
3.849497214E1,-5.052444935E0,-8.554341197E-1,8.419146538E0
3.851378151E1,-5.076373100E0,-8.291130662E-1,8.409575462E0
3.853259089E1,-5.095515728E0,-8.518448472E-1,8.440681458E0
3.855140026E1,-5.127819061E0,-8.685946465E-1,8.435895920E0
3.857020964E1,-5.112265587E0,-9.032905698E-1,8.415556908E0
3.858901901E1,-5.094319344E0,-8.913264275E-1,8.395217896E0
3.860782839E1,-5.105087280E0,-8.949156404E-1,8.421539307E0
3.862663776E1,-5.137390137E0,-9.140582681E-1,8.404789925E0
3.864544714E1,-5.125426292E0,-9.212366939E-1,8.395217896E0
3.866425651E1,-5.137390137E0,-9.619147182E-1,8.426324844E0
3.868306594E1,-5.118247509E0,-9.774680734E-1,8.428717613E0
3.870187531E1,-5.070391178E0,-9.403793216E-1,8.437092781E0
