"Time (s)","Gyroscope x (rad/s)","Gyroscope y (rad/s)","Gyroscope z (rad/s)"
1.118893760E-1,3.443651274E-2,6.589514762E-2,-1.954711229E-2
1.306988550E-1,4.390464723E-2,6.558972597E-2,-1.527118124E-2
1.495083340E-1,2.863346599E-2,3.016058356E-2,-4.581354558E-3
1.683178130E-1,1.275143679E-2,9.391776286E-3,-1.160609815E-2
1.871272400E-1,5.726693198E-3,-1.298050396E-3,-2.748812735E-2
2.059367190E-1,-2.519744914E-3,1.122431830E-2,-5.650337040E-2
2.247461990E-1,-3.436015919E-3,2.252499200E-2,-4.459185153E-2
2.435556780E-1,1.794363745E-2,-4.963133950E-3,-3.206948191E-2
2.623651050E-1,1.855448633E-2,7.864658721E-3,-2.809897438E-2
2.811745840E-1,8.170082234E-3,6.337540224E-3,-3.695625812E-2
2.999840630E-1,-2.825168660E-3,6.948387716E-3,-5.528167635E-2
3.187934900E-1,-2.023431472E-2,1.030804776E-2,-6.413896382E-2
3.376029690E-1,-3.550549597E-2,1.244601328E-2,-9.712471068E-2
3.564124490E-1,-5.077667907E-2,6.161921844E-2,-1.869192570E-1
3.752219280E-1,-8.192989230E-2,2.436517030E-1,-3.124483824E-1
3.940313550E-1,-1.127776727E-1,4.171323180E-1,-4.254551232E-1
4.128408340E-1,-8.590039611E-2,4.348468781E-1,-5.204418898E-1
4.316503130E-1,9.086352773E-3,4.134672284E-1,-5.830537081E-1
4.504597400E-1,-7.406522986E-3,4.397336841E-1,-5.641174316E-1
4.692692190E-1,1.291178465E-1,2.299076319E-1,-4.685198367E-1
4.880786990E-1,2.150182426E-1,5.734328553E-2,-3.164188862E-1
5.068881260E-1,3.213056624E-1,-1.015533600E-2,-1.172826737E-1
5.256976050E-1,5.616740584E-1,-3.825430945E-2,2.015795931E-2
5.445070840E-1,5.405998230E-1,2.683910131E-1,3.359659761E-2
5.633165110E-1,6.169557571E-1,5.353312492E-1,-1.985253580E-2
5.821259900E-1,5.436540842E-1,5.383855104E-1,1.863084175E-2
6.009354690E-1,4.144598544E-1,4.113292694E-1,2.125748396E-1
6.197448970E-1,3.524588645E-1,1.663795263E-1,4.172086716E-1
6.385543760E-1,3.558185399E-1,-2.603736520E-2,6.740699410E-1
6.573638550E-1,3.304683566E-1,-2.465532273E-1,7.953231335E-1
6.761732820E-1,2.110477239E-1,-2.499128878E-1,9.501729012E-1
6.949827610E-1,1.532463133E-1,-3.372640312E-1,1.385096192E0
7.137922400E-1,-2.040993422E-1,-2.670166194E-1,1.405254126E0
7.326016670E-1,-2.667111754E-1,-8.345700800E-2,1.054016948E0
7.514111470E-1,6.345175952E-2,1.914242655E-1,1.037218690E0
7.702206260E-1,2.141019702E-1,1.230093688E-1,1.431520581E0
7.890300530E-1,1.504974961E-1,-9.048175067E-2,1.724727273E0
8.078395320E-1,4.359922186E-2,-1.485122442E-1,1.579345584E0
8.266490110E-1,7.414158434E-2,1.077381819E-1,1.055544019E0
8.454584380E-1,1.860029846E-1,1.272853017E-1,3.387148082E-1
8.642679170E-1,2.229592502E-1,2.625879645E-1,-2.403683960E-1
8.830773440E-1,1.786728203E-1,4.400390983E-1,-6.835380793E-1
9.018868240E-1,1.422510594E-1,3.655157387E-1,-1.073640466E0
9.206963030E-1,9.827005118E-2,1.676012129E-1,-1.376620650E0
9.395057300E-1,8.788564801E-2,-1.451525837E-1,-1.494819641E0
9.583152090E-1,1.318666488E-1,-4.716504514E-1,-1.467636943E0
9.771246880E-1,7.750124484E-2,-6.460473537E-1,-1.474050760E0
9.959341150E-1,7.627955079E-2,-7.382852435E-1,-1.301791906E0
1.014743594E0,-3.550549597E-2,-1.787491739E-1,-9.933140278E-1
1.033553022E0,-7.948649675E-2,5.031854287E-2,-8.732061386E-1
1.052362501E0,4.504998680E-3,-2.074590027E-1,-7.427902818E-1
1.071171980E0,3.932329267E-2,-7.230141163E-1,-4.801259339E-1
1.089981407E0,-7.001836598E-2,-1.213219047E0,-1.041494608E-1
1.108790886E0,-1.982962936E-1,-1.694337606E0,1.918060333E-1
1.127600313E0,-2.444152534E-1,-1.620730519E0,1.282779276E-1
1.146409792E0,-1.509556323E-1,-1.004003882E0,2.504473738E-2
1.165219272E0,3.107685409E-2,-2.083752751E-1,-4.611896724E-2
1.184028699E0,8.727480471E-2,-1.194969937E-1,-1.359135211E-1
1.202838178E0,-6.665870547E-2,-2.841203213E-1,-7.513421029E-2
1.221647605E0,-2.022667974E-1,-5.046361685E-1,7.971556485E-2
1.240457084E0,-1.750840992E-1,-4.576009512E-1,1.154501289E-1
1.259266511E0,-7.154548168E-2,-2.828986347E-1,-6.719320081E-3
1.278075990E0,-5.230379477E-2,-1.359898746E-1,5.192201585E-3
1.296885417E0,-1.168245357E-2,-1.949366331E-1,8.093725890E-2
1.315694897E0,-2.053973824E-2,-2.636569440E-1,3.848337755E-2
1.334504376E0,-7.368344814E-2,-3.378748894E-1,-2.901524492E-2
1.353313803E0,-2.053210288E-1,-3.699443638E-1,-7.849387079E-2
1.372123282E0,-2.755684555E-1,-3.012240529E-1,-9.101624042E-2
1.390932709E0,-2.245627195E-1,-5.788541436E-1,-4.459185153E-2
1.409742188E0,-3.470376134E-1,-7.483642697E-1,-1.991362125E-1
1.428551615E0,-3.348206580E-1,-4.985277057E-1,-2.776300907E-1
1.447361094E0,-1.036149636E-1,-3.000023663E-1,-1.255291104E-1
1.466170522E0,-1.677539349E-1,-5.144097209E-1,1.007897966E-2
1.484980001E0,-4.010975957E-1,-8.793910146E-1,3.115320951E-2
1.503789428E0,-4.673745036E-1,-1.048595667E0,6.627693027E-2
1.522598907E0,-3.904077411E-1,-9.957574010E-1,1.310267299E-1
1.541408334E0,-3.085542321E-1,-9.310075641E-1,1.301104724E-1
1.560217813E0,-1.280488521E-1,-1.095020056E0,-3.878879920E-2
1.579027240E0,-2.526617050E-1,-7.450045943E-1,-2.400629669E-1
1.597836719E0,-3.372640312E-1,-5.751890540E-1,-2.644968629E-1
1.616646147E0,-3.610870838E-1,-7.404232621E-1,-1.704263836E-1
1.635455626E0,-4.346941710E-1,-8.961892724E-1,-2.382304333E-2
1.654265053E0,-4.255314767E-1,-8.720608354E-1,-8.551862091E-3
1.673074532E0,-3.919348717E-1,-7.404232621E-1,-3.817795217E-2
1.691883959E0,-3.757474124E-1,-7.795174718E-1,-1.072036922E-1
1.710693438E0,-4.072060585E-1,-8.729770780E-1,-2.150182426E-1
1.729502865E0,-3.824667335E-1,-8.488486409E-1,-2.214321345E-1
1.748312344E0,-3.409291208E-1,-8.253310323E-1,-1.371352077E-1
1.767121772E0,-3.033620119E-1,-7.153785229E-1,-5.344913527E-2
1.785931251E0,-1.686701924E-1,-3.876589537E-1,-2.748812549E-3
1.804740678E0,-3.436015919E-3,1.427855436E-2,1.221694518E-2
1.823550157E0,1.343100369E-1,2.366269529E-1,-4.489727318E-2
1.842359584E0,1.731752008E-1,3.719296157E-1,-1.001789495E-1
1.861169011E0,1.948602796E-1,4.632512927E-1,-1.258345395E-1
1.879978490E0,2.086043358E-1,5.041780472E-1,-1.249182671E-1
1.898787917E0,2.556395829E-1,5.988593698E-1,-4.337015375E-2
1.917597397E0,3.188622594E-1,6.962895393E-1,-3.817795217E-2
1.936406824E0,3.561239541E-1,7.023980021E-1,-1.230857223E-1
1.955216303E0,3.594835997E-1,5.973322392E-1,-1.829487532E-1
1.974025730E0,3.497100472E-1,5.707604289E-1,-2.611372173E-1
1.992835209E0,3.607053161E-1,5.203655362E-1,-2.678565085E-1
2.011644636E0,4.159869850E-1,5.637356639E-1,-1.789782494E-1
2.030454063E0,4.440859556E-1,5.716766715E-1,-1.136175916E-1
2.049263542E0,4.636330605E-1,5.063160062E-1,-6.658235192E-2
2.068072969E0,4.352286756E-1,4.238516390E-1,-5.314370990E-2
2.086882449E0,3.790307343E-1,3.462740481E-1,-8.887827396E-2
2.105691876E0,3.469612300E-1,2.347944081E-1,-9.009996802E-2
2.124501355E0,3.133646548E-1,7.597412914E-2,-1.056765765E-1
2.143310782E0,1.979145110E-1,-1.075854748E-1,-1.136175916E-1
2.162120209E0,1.352263093E-1,-3.363477588E-1,-1.169772521E-1
2.180929688E0,7.872293890E-2,-3.464267552E-1,-1.447708011E-1
2.199739115E0,1.468324065E-1,-4.453839958E-1,-2.351761907E-1
2.218548542E0,2.449497581E-1,-5.192965269E-1,-3.793361485E-1
2.237358022E0,4.019374847E-1,-5.147151947E-1,-5.076140761E-1
2.256167449E0,4.074351192E-1,-2.676274478E-1,-4.908157587E-1
2.274976928E0,2.431172132E-1,7.200361788E-2,-5.509842038E-1
2.293786355E0,2.577775419E-1,1.596602052E-1,-9.144383669E-1
2.312595782E0,2.562504113E-1,4.366794229E-1,-1.011028528E0
2.331405261E0,3.133646548E-1,5.002075434E-1,-1.059285522E0
2.350214688E0,2.699944973E-1,3.801760674E-1,-1.305456996E0
2.369024167E0,2.422009408E-1,6.711684167E-2,-1.772449732E0
2.387833594E0,1.395022422E-1,1.183516532E-2,-2.116356611E0
2.406643022E0,9.552124143E-2,1.602710485E-1,-2.329847813E0
2.425452501E0,7.108735293E-2,3.432198167E-1,-2.500579596E0
2.444261928E0,7.536327839E-2,5.399126410E-1,-2.595260859E0
2.463071355E0,1.010188684E-1,5.872532725E-1,-2.597398996E0
2.481880834E0,1.963873953E-1,5.002075434E-1,-2.632827997E0
2.500690261E0,1.945548505E-1,7.970793247E-1,-2.476145744E0
2.519499688E0,1.422510594E-1,1.179545999E0,-2.065045595E0
2.538309167E0,1.132358089E-1,1.200925708E0,-1.562623620E0
2.557118594E0,1.162900478E-1,6.657471657E-1,-1.029964805E0
2.575928022E0,1.135412306E-1,8.605311066E-2,-3.237490356E-1
2.594737501E0,3.413109109E-2,-1.851630807E-1,3.164188862E-1
2.613546928E0,-4.191939160E-2,-1.072800532E-1,5.958815217E-1
2.632356355E0,-4.314108938E-2,3.694862425E-1,6.542174220E-1
2.651165834E0,-1.143047959E-1,6.801020503E-1,3.665083647E-1
2.669975261E0,-1.393495351E-1,7.601230741E-1,1.288887709E-1
2.688784688E0,-5.902311578E-2,6.458946466E-1,1.123958975E-1
2.707594167E0,-1.320957206E-2,4.327089190E-1,2.034121305E-1
2.726403594E0,6.642963737E-3,2.409028858E-1,2.684673667E-1
2.745213022E0,5.306735635E-2,1.633252800E-1,2.244863659E-1
2.764022501E0,8.758022636E-2,2.418191582E-1,7.666133344E-2
2.782831928E0,4.543176666E-2,2.286859453E-1,-1.435491070E-2
2.801641355E0,2.374668792E-2,5.367820337E-2,-3.268032894E-2
2.820450782E0,5.367820337E-2,-1.081963181E-1,-3.909422457E-2
2.839260261E0,6.009209901E-2,-1.390441060E-1,-3.695625812E-2
2.858069688E0,5.887040496E-2,-1.091125906E-1,-3.176405653E-2
2.876879115E0,7.322531193E-2,-7.215633243E-2,-4.459185153E-2
2.895688594E0,8.116632700E-2,-6.788039953E-2,-6.505523622E-2
2.914498022E0,8.269345015E-2,-7.062921673E-2,-7.971556485E-2
2.933307449E0,7.078192383E-2,-5.260922015E-2,-8.460234851E-2
2.952116876E0,6.711684167E-2,3.779617324E-2,-8.185353130E-2
2.970926355E0,6.039752439E-2,8.025006205E-2,-7.055285573E-2
2.989735782E0,5.978667364E-2,-8.322793990E-3,-4.795150831E-2
3.008545209E0,7.780666649E-2,-1.130831018E-1,-3.206948191E-2
3.027354636E0,1.043785289E-1,-1.384332627E-1,-4.306473210E-2
3.046164115E0,1.297286898E-1,-1.225512326E-1,-2.962609194E-2
3.064973542E0,1.792836636E-1,-1.158319116E-1,2.076880634E-2
3.083782969E0,2.577775419E-1,-4.191939160E-2,4.520269856E-2
3.102592449E0,2.825168669E-1,7.414158434E-2,2.443389036E-3
3.121401876E0,2.831276953E-1,1.074327603E-1,-7.757759839E-2
3.140211303E0,3.527642787E-1,1.175117418E-1,-9.987352788E-2
3.159020730E0,4.587462842E-1,8.819106966E-2,-6.077930331E-2
3.177830157E0,5.796940327E-1,-2.221193314E-1,4.764608666E-2
3.196639636E0,6.471926570E-1,-4.719558656E-1,3.512371704E-2
3.215449063E0,7.018635273E-1,-2.410555929E-1,-4.550812021E-2
3.234258490E0,7.916580439E-1,-1.962346770E-2,-1.298050433E-1
3.253067917E0,8.490777016E-1,1.779856235E-1,-1.575985998E-1
3.271877397E0,8.799254894E-1,2.806079686E-1,-2.144073844E-1
3.290686824E0,8.383878469E-1,4.540885687E-1,-2.874036431E-1
3.309496251E0,7.534800768E-1,4.574482441E-1,-3.387148082E-1
3.328305678E0,6.835380793E-1,3.930038512E-1,-2.941229641E-1
3.347115157E0,5.543438792E-1,1.862320602E-1,-2.987042964E-1
3.365924584E0,4.376720488E-1,2.710634656E-2,-3.341334462E-1
3.384734011E0,3.756710589E-1,1.037676781E-1,-4.306473136E-1
3.403543438E0,3.295520842E-1,9.857547283E-2,-4.547757804E-1
3.422352917E0,2.486148328E-1,-1.766112149E-1,-3.524588645E-1
3.441162344E0,1.437781751E-1,-4.426352084E-1,-1.789782494E-1
3.459971772E0,-2.206685767E-2,-2.648786306E-1,-2.718270384E-2
3.478781199E0,-2.661003470E-1,1.700446010E-1,2.535016090E-2
3.497590626E0,-5.611395836E-1,3.658211529E-1,-3.787253052E-2
3.516400105E0,-7.309551239E-1,4.067479074E-1,-1.224748790E-1
3.535209532E0,-7.120188475E-1,4.647783935E-1,-2.037175596E-1
3.554018959E0,-3.476484418E-1,7.839460969E-1,-2.504473627E-1
3.572828386E0,1.187334359E-1,1.195428133E0,-1.353026628E-1
3.591637813E0,2.987042964E-1,1.062492490E0,1.065928489E-1
3.610447292E0,2.278460264E-1,5.365529656E-1,2.470877171E-1
3.629256719E0,1.330883503E-1,3.190913498E-1,2.577775419E-1
3.648066147E0,8.299887180E-2,3.539096415E-1,3.622324169E-1
3.666875574E0,4.573718831E-2,2.751103342E-1,4.929537475E-1
3.685685001E0,-4.100312293E-2,2.160872146E-2,4.593571424E-1
3.704494480E0,-1.509556323E-1,-9.353598952E-2,3.072561622E-1
3.723303907E0,-2.422772944E-1,9.246700257E-2,1.368297935E-1
3.742113334E0,-3.317664266E-1,3.389438689E-1,3.359659761E-2
3.760922761E0,-3.867426813E-1,3.655157387E-1,-4.245388508E-2
3.779732188E0,-3.589491248E-1,2.250208557E-1,-9.315420687E-2
3.798541667E0,-2.832040489E-1,8.116632700E-2,-1.041494608E-1
3.817351094E0,-1.720298529E-1,6.375718117E-2,-1.334701329E-1
3.836160522E0,-5.902311578E-2,1.092653051E-1,-1.853921413E-1
3.854969949E0,2.649549954E-2,2.488439083E-1,-2.223484069E-1
3.873779376E0,1.000262424E-2,3.224509954E-1,-2.418955117E-1
3.892588803E0,-2.725905925E-2,2.415137291E-1,-2.779355049E-1
3.911398282E0,-6.360447407E-2,1.260636002E-1,-3.399364948E-1
3.930207709E0,-6.696412712E-2,-4.436278343E-2,-3.808632791E-1
3.949017136E0,-1.143047959E-1,-1.066692024E-1,-2.956500649E-1
3.967826563E0,-1.356844455E-1,1.144575030E-1,-1.127013192E-1
3.986635990E0,-1.469851285E-1,3.548259139E-1,8.429691941E-2
4.005445417E0,-4.325562119E-1,1.278961450E-1,2.134911120E-1
4.024254897E0,-6.885012388E-1,-1.271325797E-1,2.626643181E-1
4.043064324E0,-8.625926971E-1,-7.795938104E-2,4.150707126E-1
4.061873751E0,-8.830560446E-1,1.709608734E-1,5.192201734E-1
4.080683178E0,-8.833615184E-1,3.862845302E-1,5.280774832E-1
4.099492605E0,-9.814024568E-1,2.558686435E-1,4.107947946E-1
4.118302032E0,-9.859838486E-1,2.557922900E-2,2.702999115E-1
4.137111459E0,-9.313129783E-1,-4.772244394E-2,2.351761907E-1
4.155920938E0,-9.691855311E-1,2.374668792E-2,2.330382317E-1
4.174730365E0,-9.090170860E-1,1.175117418E-1,2.147128135E-1
4.193539792E0,-9.013814926E-1,-7.795938104E-2,1.466033459E-1
4.212349219E0,-8.512920141E-1,-1.466796994E-1,7.941014320E-2
4.231158647E0,-8.363262415E-1,-3.550549597E-2,4.428642616E-2
4.249968074E0,-8.332720399E-1,7.811209559E-2,1.832541823E-2
4.268777501E0,-7.804337144E-1,9.765920788E-2,1.160609815E-2
4.287586980E0,-7.092700005E-1,3.565821052E-2,2.657185495E-2
4.306396407E0,-6.484907269E-1,-1.748550311E-2,2.596100792E-2
4.325205834E0,-6.472690105E-1,-1.506502032E-1,-4.001049697E-2
4.344015261E0,-6.087856293E-1,-1.405712217E-1,-5.039490014E-2
4.362824688E0,-5.718293786E-1,-1.723352820E-1,-8.246437646E-3
4.381634115E0,-5.706077218E-1,-2.095969617E-1,7.941014133E-3
4.400443542E0,-5.733565092E-1,-2.105132341E-1,1.893626526E-2
4.419252969E0,-5.504497290E-1,-2.719033957E-1,2.596100792E-2
4.438062449E0,-4.566846788E-1,-5.144097209E-1,6.963659078E-2
4.456871876E0,-3.485647142E-1,-7.211815715E-1,1.294996142E-1
4.475681303E0,-1.356844455E-1,-1.656465054E0,2.217375487E-1
4.494490730E0,2.889307439E-1,-2.404752970E0,2.919849753E-1
4.513300157E0,2.977880239E-1,-2.397422791E0,2.706053257E-1
4.532109584E0,2.382304370E-1,-1.908439517E0,2.241809368E-1
4.550919011E0,2.192941606E-1,-9.612445235E-1,1.643179059E-1
4.569728438E0,1.826433241E-1,-8.681666851E-2,9.009996802E-2
4.588537865E0,1.532463133E-1,5.151733160E-1,-2.748812735E-2
4.607347344E0,1.580567285E-2,1.114719868E0,-1.496575773E-1
4.626156772E0,-1.445417255E-1,1.751604557E0,-2.638860047E-1
4.644966199E0,-1.640888453E-1,1.997165084E0,-3.106158376E-1
4.663775626E0,1.427855436E-2,1.659366608E0,-1.649287641E-1
4.682585053E0,2.079934925E-1,1.086010098E0,1.401894391E-1
4.701394480E0,3.350497186E-1,7.705074549E-1,4.883723855E-1
4.720203907E0,4.428642690E-1,9.519290924E-1,7.073611021E-1
4.739013334E0,5.302154422E-1,1.209477544E0,7.641699314E-1
4.757822761E0,5.949652195E-1,1.174964666E0,6.820109487E-1
4.776632188E0,7.485933304E-1,9.479585886E-1,5.540384650E-1
4.795441615E0,9.141329527E-1,7.903599739E-1,4.770717025E-1
4.814251042E0,8.961129189E-1,6.926244497E-1,3.652866483E-1
4.833060522E0,7.317950130E-1,3.383330107E-1,2.712161839E-1
4.851869949E0,7.226322889E-1,-2.664821222E-2,2.736595869E-1
4.870679376E0,7.660024762E-1,-3.137464225E-1,3.753656447E-1
4.889488803E0,7.635591030E-1,-3.852155507E-1,4.104893506E-1
4.908298230E0,7.669187188E-1,-2.960318625E-1,3.387148082E-1
4.927107657E0,8.078454733E-1,-1.130831018E-1,2.968717813E-1
4.945917084E0,7.980719209E-1,1.596602052E-1,2.669402659E-1
4.964726511E0,7.547017932E-1,3.273377717E-1,2.000524700E-1
4.983535938E0,7.308787704E-1,1.987544298E-1,1.252236813E-1
5.002345365E0,6.746807694E-1,-1.078908965E-1,6.139015034E-2
5.021154792E0,6.817055345E-1,-2.071535736E-1,1.068982668E-2
5.039964219E0,7.259919643E-1,-1.085017473E-1,-3.573456407E-2
5.058773647E0,7.620319724E-1,-4.772244394E-2,-8.735115826E-2
5.077583074E0,8.005153537E-1,-7.124006003E-2,-1.279724985E-1
5.096392501E0,7.440119386E-1,-6.635328382E-2,-8.032641560E-2
5.115201928E0,7.009472251E-1,1.397313084E-2,-3.970507067E-3
5.134011407E0,6.691831946E-1,2.213557810E-1,3.665083554E-3
5.152820834E0,6.697940230E-1,4.039991200E-1,1.466033421E-2
5.171630261E0,6.004628539E-1,4.855472147E-1,7.146912813E-2
5.190439688E0,4.746283293E-1,3.539096415E-1,1.548497826E-1
5.209249115E0,3.610107303E-1,1.758476496E-1,2.141019702E-1
5.228058542E0,2.638860047E-1,1.642415524E-1,2.183778882E-1
5.246867969E0,1.437781751E-1,1.862320602E-1,1.994416267E-1
5.265677397E0,8.391514421E-2,1.721825749E-1,1.734806150E-1
5.284486824E0,1.190388575E-1,1.449998617E-1,1.624853760E-1
5.303296251E0,1.315612346E-1,1.651578248E-1,1.658450365E-1
5.322105678E0,9.704835713E-2,1.184280142E-1,1.612636745E-1
5.340915105E0,6.558972597E-2,5.337277800E-2,1.408002973E-1
5.359724532E0,8.177717775E-2,5.489989743E-2,1.218640283E-1
5.378533959E0,7.322531193E-2,6.131379306E-2,9.651386738E-2
5.397343386E0,3.504735976E-2,1.059056446E-1,6.077930331E-2
5.416152813E0,2.649549954E-2,1.343100369E-1,2.809897438E-2
5.434962240E0,2.741177008E-2,1.260636002E-1,3.970507067E-3
5.453771667E0,3.504735976E-2,8.391514421E-2,-8.857285604E-3
5.472581094E0,5.367820337E-2,1.080436110E-1,-4.581354558E-3
5.491390522E0,8.330429345E-2,1.181225851E-1,1.832541823E-2
5.510199949E0,9.277242422E-2,7.200361788E-2,3.206948191E-2
5.529009376E0,7.261446863E-2,1.239256412E-1,3.512371704E-2
5.547818803E0,7.841751724E-2,2.176906914E-1,2.809897438E-2
5.566628230E0,1.126249656E-1,2.347944081E-1,1.282779220E-2
5.585437657E0,1.068219170E-1,1.608818918E-1,3.023693897E-2
5.604247084E0,6.406260282E-2,1.700446010E-1,3.054236248E-2
5.623056511E0,2.802261710E-2,2.445679754E-1,-2.443389036E-3
5.641865938E0,8.780929260E-3,2.424300015E-1,-5.192201585E-3
5.660675365E0,1.855448633E-2,1.853157878E-1,1.954711229E-2
5.679484792E0,3.779617324E-2,1.605764776E-1,5.680879578E-2
5.698294219E0,2.832804248E-2,2.021140903E-1,1.038440317E-1
5.717103647E0,-1.603474026E-3,2.430408597E-1,1.169772521E-1
5.735913074E0,-9.849912487E-3,2.344889939E-1,1.450762302E-1
5.754722501E0,-7.101099472E-3,1.758476496E-1,1.585148573E-1
5.773531928E0,-6.726955622E-2,1.373642832E-1,1.356080920E-1
5.792341355E0,-1.314085126E-1,8.941277117E-2,9.132166207E-2
5.811150782E0,-1.653105468E-1,3.321481869E-2,2.626643144E-2
5.829960209E0,-2.245627195E-1,3.840702027E-2,-3.695625812E-2
5.848769636E0,-2.719033957E-1,8.696937561E-2,-7.788302749E-2
5.867579063E0,-2.624352574E-1,4.909684882E-2,-1.017060652E-1
5.886388490E0,-2.648786306E-1,8.399150101E-4,-1.197260618E-1
5.905197917E0,-2.123457789E-1,-4.955498502E-2,-8.399149776E-2
5.924007344E0,-1.292705536E-1,-3.947600350E-2,-6.780404598E-2
5.942816772E0,1.145338640E-3,-5.566345528E-2,-6.963659078E-2
5.961626199E0,9.124530852E-2,-1.274380088E-1,-5.314370990E-2
5.980435626E0,1.648524106E-1,-1.307976693E-1,-3.237490356E-2
5.999245053E0,2.067717910E-1,-3.275668249E-2,1.130067464E-2
6.018054480E0,1.114032716E-1,-9.544488043E-3,5.528167635E-2
6.036863907E0,4.573718831E-2,-1.210241169E-1,4.275930673E-2
6.055673334E0,5.306735635E-2,-1.158319116E-1,2.535016090E-2
6.074482761E0,4.085041210E-2,-6.490251981E-3,5.314370990E-2
6.093292188E0,1.122431830E-2,-6.184828468E-3,5.131116882E-2
6.112101615E0,-5.657972768E-2,-7.101099472E-3,2.504473738E-2
6.130911042E0,-1.353790164E-1,1.184280142E-1,2.993151546E-2
6.149720469E0,-1.375169903E-1,2.018086612E-1,8.460234851E-2
6.168529897E0,-1.020878479E-1,2.015032321E-1,1.298050433E-1
6.187339324E0,-1.033095419E-1,1.837886721E-1,1.692046970E-1
6.206148699E0,-8.254073560E-2,2.155527323E-1,1.829487532E-1
6.224958126E0,-2.725905925E-2,2.824405134E-1,1.960819662E-1
6.243767553E0,1.580567285E-2,3.154262602E-1,2.049392611E-1
6.262576980E0,4.848600179E-2,2.412083149E-1,1.643179059E-1
6.281386407E0,7.597412914E-2,1.789018959E-1,1.285833418E-1
6.300195834E0,8.727480471E-2,1.929513812E-1,9.315420687E-2
6.319005261E0,8.819106966E-2,1.651578248E-1,5.528167635E-2
6.337814688E0,7.536327839E-2,1.223985180E-1,2.535016090E-2
6.356624115E0,5.031854287E-2,1.416402012E-1,-7.330167107E-3
6.375433542E0,3.840702027E-2,1.617981642E-1,-3.970507160E-2
6.394242969E0,3.046600707E-2,1.379751265E-1,-5.039490014E-2
6.413052397E0,1.702736691E-2,1.352263093E-1,-4.184303805E-2
6.431861824E0,1.947075687E-2,1.285069883E-1,-4.489727318E-2
6.450671251E0,8.475505747E-3,1.300341040E-1,-2.321219631E-2
6.469480678E0,-1.443126611E-2,1.355317384E-1,1.618745178E-2
6.488290105E0,-1.901262067E-2,1.315612346E-1,4.856235534E-2
6.507099532E0,-2.512109280E-2,2.008923888E-1,2.168507688E-2
6.525908907E0,-1.901262067E-2,2.082225531E-1,1.191152167E-2
6.544718334E0,-2.573194169E-2,1.614927500E-1,3.237490356E-2
6.563527761E0,-2.573194169E-2,1.480541080E-1,7.421794534E-2
6.582337188E0,4.810422193E-3,8.788564801E-2,7.543963939E-2
6.601146615E0,-2.298312820E-2,5.795413256E-2,-4.275930673E-2
6.619956042E0,-1.701973230E-1,1.245364845E-1,-2.373141646E-1
6.638765469E0,-7.887565345E-2,7.108735293E-2,-3.063398898E-1
6.657574897E0,2.466295846E-2,4.810422193E-3,-2.446443290E-1
6.676384324E0,-4.588989913E-2,-1.295759678E-1,-1.349972486E-1
6.695193751E0,-1.504211407E-2,-2.734304965E-1,1.252236869E-2
6.714003178E0,3.962871432E-2,-2.395284772E-1,-2.901524492E-2
6.732812605E0,1.031568274E-1,-1.023932695E-1,-9.620844573E-2
6.751621980E0,1.572168171E-1,-1.118614078E-1,-1.206423342E-1
6.770431407E0,1.245364845E-1,-2.428881377E-1,-9.071081877E-2
6.789240834E0,7.627955079E-2,-3.482593000E-1,-8.246438205E-2
6.808050261E0,5.948125198E-2,-3.314609826E-1,-8.154810965E-2
6.826859688E0,6.742226332E-2,-2.868691385E-1,-5.314370990E-2
6.845669115E0,3.840702027E-2,-2.404447496E-1,-3.603998944E-2
6.864478542E0,-3.184041381E-2,-1.463742703E-1,-1.313321572E-2
6.883287969E0,-8.498412371E-2,-7.795938104E-2,-6.108472589E-3
6.902097397E0,-1.191915721E-1,-7.062921673E-2,1.832541777E-3
6.920906824E0,-1.256054640E-1,-5.841226876E-2,1.160609815E-2
6.939716251E0,-1.118614078E-1,-3.428380191E-2,6.719320081E-3
6.958525678E0,-8.803836256E-2,-3.214583546E-2,9.162708884E-4
6.977335053E0,-6.390989572E-2,-4.100312293E-2,6.108472589E-4
6.996144480E0,-5.810684711E-2,1.397313084E-2,-1.099525020E-2
7.014953907E0,-6.665870547E-2,2.283041552E-2,-1.557660475E-2
7.033763334E0,-6.146650389E-2,2.290677221E-4,-2.412846684E-2
7.052572761E0,-3.122956678E-2,-3.817795368E-4,-2.748812735E-2
7.071382188E0,-7.635590737E-5,-1.168245357E-2,-2.626643144E-2
7.090191615E0,1.885990985E-2,-3.275668249E-2,-2.901524492E-2
7.109001042E0,2.069245093E-2,-5.291464552E-2,-3.359659761E-2
7.127810417E0,1.122431830E-2,-5.322006717E-2,-4.031591862E-2
7.146619844E0,3.283303929E-3,-4.772244394E-2,-4.123219103E-2
7.165429272E0,1.145338640E-3,-6.971294433E-2,-3.726168349E-2
7.184238699E0,-4.352286924E-3,-6.696412712E-2,-2.748812735E-2
7.203048126E0,-1.168245357E-2,-5.627430230E-2,-2.321219631E-2
7.221857553E0,-2.420482226E-2,-4.375193641E-2,-1.221694518E-2
7.240666980E0,-3.581092134E-2,-3.367295489E-2,5.192201585E-3
7.259476407E0,-4.466820508E-2,-2.695363574E-2,2.107422985E-2
7.278285834E0,-5.108210072E-2,-2.115058713E-2,2.870982140E-2
7.297095209E0,-5.291464552E-2,-1.259872504E-2,3.054236248E-2
7.315904636E0,-5.810684711E-2,-1.901262067E-2,3.237490356E-2
7.334714063E0,-6.207735091E-2,-3.061871976E-2,2.748812735E-2
7.353523490E0,-5.688514933E-2,-3.184041381E-2,1.221694518E-2
7.372332917E0,-5.230379477E-2,-3.367295489E-2,2.443389036E-3
7.391142344E0,-4.924955964E-2,-4.466820508E-2,-7.024743594E-3
7.409951772E0,-5.260922015E-2,-5.841226876E-2,-2.107422985E-2
7.428761199E0,-5.505260825E-2,-6.543701142E-2,-3.481829539E-2
7.447570574E0,-5.108210072E-2,-4.405735806E-2,-3.512371704E-2
7.466380001E0,-5.169294775E-2,-3.672719002E-2,-3.298575059E-2
7.485189428E0,-4.741701856E-2,-3.794888780E-2,-3.634541109E-2
7.503998855E0,-3.825430945E-2,-3.061871976E-2,-4.520269856E-2
7.522808282E0,-2.634278871E-2,-2.725905925E-2,-5.711421743E-2
7.541617709E0,-1.748550311E-2,-3.153498843E-2,-6.108472496E-2
7.560427136E0,-1.015533600E-2,-2.573194169E-2,-5.955760926E-2
7.579236511E0,-6.872031372E-4,-2.206685767E-2,-6.047387794E-2
7.598045938E0,2.367033157E-3,-2.298312820E-2,-6.139015034E-2
7.616855365E0,3.588727675E-3,-2.298312820E-2,-6.108472496E-2
7.635664792E0,1.145338640E-3,-2.786990628E-2,-5.436540768E-2
7.654474219E0,-3.130592173E-3,-2.786990628E-2,-4.245388508E-2
7.673283647E0,-7.101099472E-3,-1.595838554E-2,-2.993151546E-2
7.692093074E0,-1.290414855E-2,-1.351499557E-2,-1.893626526E-2
7.710902449E0,-2.267770469E-2,-8.628217503E-3,-3.970507067E-3
7.729711876E0,-3.214583546E-2,-2.519744914E-3,9.773556143E-3
7.748521303E0,-4.222481698E-2,-1.603474026E-3,1.252236869E-2
7.767330730E0,-5.138752609E-2,-1.351499557E-2,7.941014133E-3
7.786140157E0,-6.665870547E-2,1.450762269E-3,7.024743594E-3
7.804949584E0,-7.582141459E-2,1.672194339E-2,6.413896102E-3
7.823758959E0,-6.940752268E-2,2.344126441E-2,3.054236295E-3
7.842568386E0,-4.863871261E-2,1.855448633E-2,8.551862091E-3
7.861377813E0,-2.328855172E-2,-6.795675959E-3,8.246437646E-3
7.880187240E0,-1.198787708E-2,-2.053973824E-2,2.443389036E-3
7.898996667E0,-1.687465608E-2,-1.412584260E-2,2.443389036E-3
7.917806094E0,-3.458922729E-2,-8.628217503E-3,4.886778072E-3
7.936615522E0,-5.871769413E-2,-1.718007959E-2,1.404948719E-2
7.955424897E0,-1.115559787E-1,-3.672719002E-2,1.130067464E-2
7.974234324E0,-1.604237556E-1,-2.481566928E-2,7.330167107E-3
7.993043751E0,-1.253000498E-1,1.519482583E-2,5.192201585E-3
8.011853178E0,-6.177192926E-2,4.504998680E-3,9.162709117E-3
8.030662605E0,-5.573981442E-3,8.399150101E-4,-7.941014133E-3
8.049472032E0,4.176668078E-2,-1.718007959E-2,-3.084778599E-2
8.068281407E0,7.047650218E-2,-2.115058713E-2,-4.337015375E-2
8.087090834E0,9.613208473E-2,-1.137703005E-2,-5.436540768E-2
8.105900261E0,1.089598835E-1,-1.748550311E-2,-4.550812021E-2
8.124709688E0,9.888090193E-2,-3.367295489E-2,-3.084778599E-2
8.143519115E0,6.833853573E-2,-3.794888780E-2,-1.710372418E-2
8.162328490E0,4.268295318E-2,-2.053973824E-2,-1.863084175E-2
8.181137917E0,2.802261710E-2,-1.908897655E-3,-1.282779220E-2
8.199947344E0,1.611109637E-2,-9.926267667E-4,9.162708884E-4
8.218756772E0,4.504998680E-3,2.367033157E-3,1.404948719E-2
8.237566199E0,-4.963133950E-3,1.305686031E-2,2.809897438E-2
8.256375574E0,-8.628217503E-3,2.221956849E-2,3.603998944E-2
8.275185001E0,-1.290414855E-2,2.008160390E-2,3.909422457E-2
8.293994428E0,-1.840177365E-2,1.000262424E-2,3.787253052E-2
8.312803855E0,-2.145601064E-2,1.000262424E-2,3.115320951E-2
8.331613282E0,-2.786990628E-2,7.253811229E-3,2.168507688E-2
8.350422709E0,-3.550549597E-2,4.199574701E-3,6.413896102E-3
8.369232084E0,-2.970244735E-2,3.588727675E-3,3.054236295E-4
8.388041511E0,-1.687465608E-2,-8.628217503E-3,-8.246437646E-3
8.406850938E0,-2.519744914E-3,-1.718007959E-2,-2.076880634E-2
8.425660365E0,1.702736691E-2,-2.298312820E-2,-3.268032894E-2
8.444469792E0,3.779617324E-2,-3.214583546E-2,-4.245388508E-2
8.463279167E0,4.909684882E-2,-3.733803704E-2,-4.642439261E-2
8.482088594E0,5.062396824E-2,-3.917058185E-2,-4.245388508E-2
8.500898022E0,4.634803534E-2,-4.039227590E-2,-3.542914242E-2
8.519707449E0,4.176668078E-2,-3.428380191E-2,-2.809897438E-2
8.538516876E0,3.871244565E-2,-2.848075330E-2,-2.015795931E-2
8.557326251E0,3.382566571E-2,-2.451024577E-2,-9.468132630E-3
8.576135678E0,2.191414498E-2,-9.239064530E-3,2.443389036E-3
8.594945105E0,5.115845706E-3,1.458397787E-2,1.007897966E-2
8.613754532E0,-7.101099472E-3,2.680092305E-2,1.282779220E-2
8.632563959E0,-9.849912487E-3,2.802261710E-2,1.649287529E-2
8.651373334E0,-5.573981442E-3,2.863346599E-2,1.985253580E-2
8.670182761E0,2.672456671E-3,2.954973653E-2,2.107422985E-2
8.688992188E0,9.697199799E-3,2.680092305E-2,2.046338283E-2
8.707801615E0,1.397313084E-2,2.557922900E-2,1.710372418E-2
8.726610990E0,1.763821393E-2,2.619007602E-2,1.343864016E-2
8.745420417E0,2.038702741E-2,2.374668792E-2,8.857285604E-3
8.764229844E0,2.649549954E-2,1.824906096E-2,1.099525020E-2
8.783039272E0,2.252499200E-2,1.550024934E-2,1.863084175E-2
8.801848699E0,1.305686031E-2,2.221956849E-2,2.626643144E-2
8.820658074E0,9.697199799E-3,2.619007602E-2,3.451287001E-2
8.839467501E0,7.864658721E-3,3.596363217E-2,3.909422457E-2
8.858276928E0,6.337540224E-3,3.993413970E-2,4.092676565E-2
8.877086355E0,4.810422193E-3,2.954973653E-2,4.520269856E-2
8.895895730E0,5.344913807E-4,2.557922900E-2,4.092676565E-2
8.914705157E0,-1.603474026E-3,2.283041552E-2,2.809897438E-2
8.933514584E0,4.810422193E-3,1.458397787E-2,1.863084175E-2
8.952324011E0,1.611109637E-2,2.061609412E-3,1.649287529E-2
8.971133386E0,2.435753495E-2,-4.352286924E-3,1.740914769E-2
8.989942813E0,2.466295846E-2,2.290677221E-4,1.740914769E-2
9.008752240E0,1.947075687E-2,5.115845706E-3,1.557660475E-2
9.027561667E0,7.559234742E-3,9.697199799E-3,1.221694518E-2
9.046371094E0,-6.872031372E-4,1.550024934E-2,8.551862091E-3
9.065180469E0,2.290677221E-4,1.702736691E-2,1.221694518E-2
9.083989897E0,3.894151188E-3,1.580567285E-2,1.374406368E-2
9.102799324E0,3.283303929E-3,1.916533336E-2,1.374406368E-2
9.121608751E0,8.399150101E-4,2.466295846E-2,1.588202827E-2
9.140418126E0,-2.519744914E-3,2.588465251E-2,1.801999472E-2
9.159227553E0,-8.628217503E-3,2.619007602E-2,1.588202827E-2
9.178036980E0,-1.901262067E-2,2.954973653E-2,1.130067464E-2
9.196846407E0,-2.542651631E-2,2.710634656E-2,3.970507067E-3
9.215655782E0,-2.939702384E-2,2.099787444E-2,-2.748812549E-3
9.234465209E0,-2.359397523E-2,1.397313084E-2,-8.246437646E-3
9.253274636E0,-1.351499557E-2,2.061609412E-3,-9.773556143E-3
9.272084063E0,-1.351499557E-2,-1.076618303E-2,-2.015795931E-2
9.290893490E0,-1.382041909E-2,-8.322793990E-3,-3.237490356E-2
9.309702865E0,-9.849912487E-3,-1.412584260E-2,-3.787253052E-2
9.328512292E0,-6.490251981E-3,-2.176143415E-2,-4.489727318E-2
9.347321719E0,-5.268557463E-3,-3.367295489E-2,-3.817795217E-2
9.366131147E0,-6.184828468E-3,-3.886515647E-2,-2.596100792E-2
9.384940522E0,-1.229330152E-2,-2.848075330E-2,-5.192201585E-3
9.403749949E0,-2.512109280E-2,-2.389939874E-2,1.099525020E-2
9.422559376E0,-3.122956678E-2,-1.595838554E-2,1.588202827E-2
9.441368803E0,-2.848075330E-2,-1.595838554E-2,2.168507688E-2
9.460178178E0,-2.634278871E-2,-2.573194169E-2,1.588202827E-2
9.478987605E0,-2.786990628E-2,-3.397838026E-2,4.886778072E-3
9.497797032E0,-2.298312820E-2,-3.642176837E-2,-6.108472589E-3
9.516606459E0,-1.718007959E-2,-3.367295489E-2,-1.771457121E-2
9.535415834E0,-1.473669056E-2,-3.458922729E-2,-2.168507688E-2
9.554225261E0,-1.412584260E-2,-3.122956678E-2,-1.679829881E-2
9.573034688E0,-8.628217503E-3,-2.939702384E-2,-4.581354558E-3
9.591844115E0,-2.519744914E-3,-2.359397523E-2,2.137965523E-3
9.610653490E0,1.145338640E-3,-1.718007959E-2,5.192201585E-3
9.629462917E0,-1.908897655E-3,-1.534753758E-2,7.635590620E-3
9.648272344E0,-1.137703005E-2,-1.046075951E-2,5.192201585E-3
9.667081772E0,-2.298312820E-2,-8.322793990E-3,-2.748812549E-3
9.685891147E0,-3.061871976E-2,-9.239064530E-3,-1.801999472E-2
9.704700574E0,-3.245126083E-2,-2.786990628E-2,-3.359659761E-2
9.723510001E0,-3.061871976E-2,-3.458922729E-2,-3.665083647E-2
9.742319376E0,-2.909160033E-2,-4.008685052E-2,-4.245388508E-2
9.761128803E0,-2.634278871E-2,-5.108210072E-2,-4.703523964E-2
9.779938230E0,-2.206685767E-2,-6.604786217E-2,-5.375456065E-2
9.798747657E0,-1.229330152E-2,-7.154548168E-2,-5.833591148E-2
9.817557032E0,1.756185899E-3,-8.284615725E-2,-5.833591148E-2
9.836366459E0,1.244601328E-2,-9.811734408E-2,-5.558710173E-2
9.855175886E0,1.885990985E-2,-1.011715755E-1,-5.558710173E-2
9.873985261E0,1.550024934E-2,-1.033095419E-1,-5.344913527E-2
9.892794688E0,8.170082234E-3,-9.536852688E-2,-5.405998230E-2
9.911604115E0,-7.635590737E-5,-7.979192585E-2,-4.825693369E-2
9.930413542E0,-7.406522986E-3,-6.971294433E-2,-3.665083647E-2
9.949222917E0,-1.198787708E-2,-6.085565686E-2,-2.565558441E-2
9.968032344E0,-1.656923257E-2,-4.375193641E-2,-1.893626526E-2
9.986841772E0,-2.176143415E-2,-2.939702384E-2,-1.160609815E-2
1.000565120E1,-2.359397523E-2,-1.962346770E-2,-7.941014133E-3
1.002446057E1,-2.298312820E-2,-1.076618303E-2,9.162708884E-4
1.004327000E1,-1.290414855E-2,-3.741439432E-3,9.773556143E-3
1.006207943E1,-4.963133950E-3,-6.184828468E-3,1.038440317E-2
1.008088880E1,-4.352286924E-3,-9.926267667E-4,6.719320081E-3
1.009969823E1,-5.573981442E-3,9.391776286E-3,9.162709117E-3
1.011850766E1,-4.963133950E-3,8.170082234E-3,1.252236869E-2
1.013731708E1,-5.268557463E-3,3.894151188E-3,1.527118124E-2
1.015612646E1,-9.926267667E-4,2.061609412E-3,1.588202827E-2
1.017493589E1,3.588727675E-3,7.559234742E-3,1.343864016E-2
1.019374531E1,6.032116711E-3,1.519482583E-2,1.374406368E-2
1.021255469E1,6.948387716E-3,1.519482583E-2,1.771457121E-2
1.023136412E1,7.253811229E-3,1.275143679E-2,2.321219631E-2
1.025017354E1,4.504998680E-3,1.977618039E-2,2.504473738E-2
1.026898297E1,1.145338640E-3,2.557922900E-2,2.260134928E-2
1.028779234E1,-3.817795368E-4,2.619007602E-2,2.596100792E-2
1.030660177E1,-7.635590737E-5,2.405211143E-2,2.779355086E-2
1.032541120E1,1.756185899E-3,2.527380548E-2,2.748812735E-2
1.034422057E1,1.756185899E-3,3.046600707E-2,2.596100792E-2
1.036303000E1,8.399150101E-4,3.382566571E-2,2.443389036E-2
1.038183943E1,-7.635590737E-5,3.565821052E-2,2.473931387E-2
1.040064880E1,2.061609412E-3,3.107685409E-2,2.565558441E-2
1.041945823E1,5.421269219E-3,2.649549954E-2,2.321219631E-2
1.043826766E1,7.253811229E-3,2.802261710E-2,2.107422985E-2
1.045707708E1,9.391776286E-3,2.435753495E-2,1.954711229E-2
1.047588646E1,1.152974181E-2,2.221956849E-2,1.832541823E-2
1.049469589E1,1.183516532E-2,2.130329795E-2,1.588202827E-2
1.051350531E1,1.000262424E-2,2.069245093E-2,1.313321572E-2
1.053231469E1,6.642963737E-3,1.947075687E-2,1.404948719E-2
1.055112412E1,4.504998680E-3,1.977618039E-2,1.557660475E-2
1.056993354E1,2.061609412E-3,2.008160390E-2,1.710372418E-2
1.058874292E1,-7.635590737E-5,2.221956849E-2,1.863084175E-2
1.060755234E1,-1.908897655E-3,2.221956849E-2,1.832541823E-2
1.062636177E1,-4.046862945E-3,2.283041552E-2,1.985253580E-2
1.064517115E1,-3.741439432E-3,2.374668792E-2,2.596100792E-2
1.066398057E1,-3.741439432E-3,1.947075687E-2,2.443389036E-2
1.068279000E1,-2.825168660E-3,1.885990985E-2,2.015795931E-2
1.070159943E1,-7.635590737E-5,1.641651988E-2,1.924168877E-2
1.072040880E1,1.145338640E-3,1.183516532E-2,1.985253580E-2
1.073921823E1,1.145338640E-3,6.642963737E-3,1.771457121E-2
1.075802766E1,3.283303929E-3,2.290677221E-4,1.191152167E-2
1.077683703E1,4.504998680E-3,2.290677221E-4,7.635590620E-3
1.079564646E1,3.283303929E-3,-4.657710437E-3,5.192201585E-3
1.081445583E1,6.642963737E-3,-1.840177365E-2,3.970507067E-3
1.083326526E1,7.253811229E-3,-1.504211407E-2,-3.054236295E-4
1.085207469E1,2.367033157E-3,-2.825168660E-3,-1.221694518E-3
1.087088412E1,-4.046862945E-3,-9.926267667E-4,1.527118147E-3
1.088969349E1,-9.544488043E-3,-3.130592173E-3,3.970507067E-3
1.090850292E1,-1.015533600E-2,-2.214321401E-3,-0.000000000E0
1.092731234E1,-7.101099472E-3,-9.926267667E-4,-4.581354558E-3
1.094612172E1,-4.352286924E-3,-1.908897655E-3,-8.246437646E-3
1.096493115E1,-4.352286924E-3,-2.519744914E-3,-1.130067464E-2
1.098374057E1,-1.603474026E-3,-3.817795368E-4,-1.374406368E-2
1.100254995E1,2.367033157E-3,-1.603474026E-3,-1.343864016E-2
1.102135938E1,3.894151188E-3,-3.130592173E-3,-1.221694518E-2
1.104016880E1,4.199574701E-3,-5.268557463E-3,-1.191152167E-2
1.105897818E1,6.642963737E-3,-6.184828468E-3,-1.007897966E-2
1.107778761E1,1.122431830E-2,-4.352286924E-3,-7.941014133E-3
1.109659703E1,1.183516532E-2,-5.268557463E-3,-2.748812549E-3
1.111540641E1,8.475505747E-3,-4.657710437E-3,-0.000000000E0
1.113421583E1,5.421269219E-3,5.344913807E-4,2.443389036E-3
1.115302526E1,3.588727675E-3,1.145338640E-3,3.054236295E-3
1.117183464E1,3.283303929E-3,-7.635590737E-5,4.581354558E-3
1.119064406E1,2.367033157E-3,-7.635590737E-5,4.886778072E-3
1.120945349E1,-7.635590737E-5,2.672456671E-3,3.970507067E-3
1.122826287E1,-3.130592173E-3,7.559234742E-3,4.275931045E-3
1.124707229E1,-4.352286924E-3,6.032116711E-3,4.581354558E-3
1.126588172E1,-5.573981442E-3,4.199574701E-3,3.665083554E-3
1.128469109E1,-4.352286924E-3,6.948387716E-3,2.137965523E-3
1.130350052E1,-6.872031372E-4,6.948387716E-3,9.162708884E-4
1.132230995E1,8.399150101E-4,5.726693198E-3,-3.359660041E-3
1.134111932E1,5.421269219E-3,6.032116711E-3,-5.497625098E-3
1.135992875E1,1.366770733E-2,-3.817795368E-4,-3.359660041E-3
1.137873813E1,1.305686031E-2,-5.573981442E-3,-3.054236295E-3
1.139754755E1,4.199574701E-3,5.344913807E-4,-3.054236295E-3
1.141635698E1,-4.657710437E-3,9.391776286E-3,-1.221694518E-3
1.143516636E1,-1.504211407E-2,7.559234742E-3,3.054236295E-4
1.145397578E1,-2.206685767E-2,3.283303929E-3,-1.527118147E-3
1.147278521E1,-1.595838554E-2,8.399150101E-4,-7.941014133E-3
1.149159458E1,-7.711946499E-3,7.864658721E-3,-1.221694518E-2
1.151040401E1,1.450762269E-3,8.475505747E-3,-1.374406368E-2
1.152921344E1,9.697199799E-3,1.145338640E-3,-9.468132630E-3
1.154802281E1,1.580567285E-2,-7.406522986E-3,-2.748812549E-3
1.156683224E1,1.794363745E-2,-8.017370477E-3,3.054236295E-4
1.158564167E1,1.305686031E-2,-4.046862945E-3,4.886778072E-3
1.160445104E1,3.894151188E-3,-9.926267667E-4,9.162709117E-3
1.162326047E1,-4.352286924E-3,2.290677221E-4,1.099525020E-2
1.164206990E1,-1.015533600E-2,4.504998680E-3,9.468132630E-3
1.166087927E1,-1.351499557E-2,9.391776286E-3,3.970507067E-3
1.167968870E1,-1.443126611E-2,1.000262424E-2,-3.054236295E-3
1.169849807E1,-8.017370477E-3,5.726693198E-3,-8.551862091E-3
1.171730750E1,5.726693198E-3,-2.214321401E-3,-1.160609815E-2
1.173611693E1,1.763821393E-2,-6.795675959E-3,-1.099525020E-2
1.175492630E1,1.977618039E-2,-9.544488043E-3,-7.024743594E-3
1.177373573E1,1.275143679E-2,-6.795675959E-3,-1.527118147E-3
1.179254516E1,-1.298050396E-3,-7.635590737E-5,4.275931045E-3
1.181135453E1,-1.443126611E-2,5.421269219E-3,7.330167107E-3
1.183016396E1,-1.870719716E-2,6.337540224E-3,4.886778072E-3
1.184897333E1,-1.748550311E-2,7.559234742E-3,-9.162708884E-4
1.186778276E1,-1.015533600E-2,7.559234742E-3,-7.941014133E-3
1.188659219E1,1.450762269E-3,4.504998680E-3,-1.160609815E-2
1.190540156E1,1.366770733E-2,-2.519744914E-3,-9.468132630E-3
1.192421099E1,2.069245093E-2,-9.239064530E-3,-2.137965523E-3
1.194302042E1,1.947075687E-2,-1.046075951E-2,9.773556143E-3
1.196182979E1,7.253811229E-3,-7.406522986E-3,1.954711229E-2
1.198063922E1,-1.046075951E-2,-7.635590737E-5,1.924168877E-2
1.199944859E1,-2.053973824E-2,1.275143679E-2,1.618745178E-2
1.201825802E1,-1.748550311E-2,1.214058883E-2,1.160609815E-2
1.203706745E1,-8.933641016E-3,2.367033157E-3,3.054236295E-4
1.205587682E1,8.399150101E-4,3.894151188E-3,-1.130067464E-2
1.207468625E1,1.305686031E-2,4.199574701E-3,-1.282779220E-2
1.209349563E1,1.580567285E-2,-4.963133950E-3,-3.665083554E-3
1.211230505E1,1.030804776E-2,-1.534753758E-2,9.162709117E-3
1.213111448E1,4.810422193E-3,-1.809635013E-2,1.618745178E-2
1.214992386E1,-7.101099472E-3,1.450762269E-3,1.557660475E-2
1.216873328E1,-1.901262067E-2,1.519482583E-2,1.068982668E-2
1.218754271E1,-2.176143415E-2,1.519482583E-2,3.970507067E-3
1.220635208E1,-1.076618303E-2,1.030804776E-2,-6.413896102E-3
1.222516151E1,7.864658721E-3,7.559234742E-3,-1.221694518E-2
1.224397089E1,2.283041552E-2,1.145338640E-3,-8.857285604E-3
1.226278031E1,2.283041552E-2,-1.046075951E-2,1.527118147E-3
1.228158974E1,9.697199799E-3,-1.015533600E-2,1.221694518E-2
1.230039912E1,-7.101099472E-3,3.283303929E-3,1.618745178E-2
1.231920854E1,-2.023431472E-2,1.397313084E-2,1.466033421E-2
1.233801792E1,-2.237228118E-2,1.488940232E-2,8.857285604E-3
1.235682734E1,-1.107160654E-2,1.152974181E-2,-3.054236295E-4
1.237563677E1,5.421269219E-3,8.780929260E-3,-8.246437646E-3
1.239444615E1,1.458397787E-2,4.199574701E-3,-9.468132630E-3
1.241325557E1,1.336228382E-2,-6.490251981E-3,-2.748812549E-3
1.243206495E1,9.391776286E-3,-7.711946499E-3,6.719320081E-3
1.245087438E1,6.032116711E-3,-4.657710437E-3,1.557660475E-2
1.246968380E1,-3.817795368E-4,1.450762269E-3,1.924168877E-2
1.248849318E1,-8.322793990E-3,1.275143679E-2,1.710372418E-2
1.250730261E1,-9.544488043E-3,1.519482583E-2,1.221694518E-2
1.252611198E1,-4.046862945E-3,7.559234742E-3,4.581354558E-3
1.254492141E1,2.061609412E-3,-2.214321401E-3,-4.581354558E-3
1.256373083E1,2.672456671E-3,-8.017370477E-3,-1.038440317E-2
1.258254021E1,1.145338640E-3,-8.933641016E-3,-1.068982668E-2
1.260134964E1,2.672456671E-3,-5.573981442E-3,-7.941014133E-3
1.262015901E1,6.032116711E-3,-6.184828468E-3,-6.413896102E-3
1.263896844E1,5.421269219E-3,-4.352286924E-3,-6.719320081E-3
1.265777786E1,2.977880416E-3,-1.603474026E-3,-7.330167107E-3
1.267658724E1,4.199574701E-3,-3.130592173E-3,-7.024743594E-3
1.269539667E1,3.894151188E-3,-9.239064530E-3,-8.857285604E-3
1.271420604E1,2.290677221E-4,-6.490251981E-3,-1.007897966E-2
1.273301547E1,-1.603474026E-3,1.450762269E-3,-7.941014133E-3
1.275182490E1,-5.268557463E-3,4.199574701E-3,-3.970507067E-3
1.277063427E1,-9.849912487E-3,3.588727675E-3,6.108472589E-4
1.278944370E1,-6.184828468E-3,-2.214321401E-3,1.832541777E-3
1.280825307E1,-9.926267667E-4,4.810422193E-3,9.162708884E-4
1.282706250E1,8.399150101E-4,8.170082234E-3,2.748812549E-3
1.284587188E1,-6.872031372E-4,4.810422193E-3,6.413896102E-3
1.286468130E1,-1.603474026E-3,4.810422193E-3,7.330167107E-3
1.288349073E1,-1.908897655E-3,7.253811229E-3,6.413896102E-3
1.290230010E1,-1.908897655E-3,9.697199799E-3,6.108472589E-3
1.292110953E1,-7.635590737E-5,8.780929260E-3,7.024743594E-3
1.293991891E1,1.450762269E-3,3.588727675E-3,7.024743594E-3
1.295872833E1,2.672456671E-3,2.061609412E-3,4.581354558E-3
1.297753771E1,8.399150101E-4,2.367033157E-3,9.162708884E-4
1.299634714E1,8.399150101E-4,2.061609412E-3,6.108472589E-4
1.301515656E1,3.588727675E-3,-4.046862945E-3,1.832541777E-3
1.303396594E1,6.337540224E-3,-5.573981442E-3,3.970507067E-3
1.305277536E1,4.504998680E-3,-1.298050396E-3,4.275931045E-3
1.307158474E1,2.290677221E-4,2.977880416E-3,6.108472589E-3
1.309039417E1,-4.657710437E-3,4.810422193E-3,7.635590620E-3
1.310920354E1,-8.017370477E-3,4.810422193E-3,8.551862091E-3
1.312801297E1,-9.544488043E-3,5.421269219E-3,8.246437646E-3
1.314682240E1,-1.168245357E-2,6.642963737E-3,7.024743594E-3
1.316563177E1,-1.290414855E-2,4.504998680E-3,3.970507067E-3
1.318444120E1,-9.239064530E-3,2.977880416E-3,3.054236295E-4
1.320325057E1,-3.130592173E-3,-1.603474026E-3,-4.275931045E-3
1.322206000E1,2.061609412E-3,-7.101099472E-3,-7.024743594E-3
1.324086943E1,4.504998680E-3,-1.015533600E-2,-1.130067464E-2
1.325967880E1,6.337540224E-3,-1.168245357E-2,-1.374406368E-2
1.327848823E1,6.337540224E-3,-1.168245357E-2,-1.313321572E-2
1.329729760E1,3.588727675E-3,-1.107160654E-2,-1.313321572E-2
1.331610703E1,5.344913807E-4,-9.239064530E-3,-1.252236869E-2
1.333491641E1,-2.519744914E-3,-4.657710437E-3,-9.162709117E-3
1.335372583E1,-1.603474026E-3,-5.268557463E-3,-3.970507067E-3
1.337253526E1,-2.519744914E-3,-6.795675959E-3,-2.443389036E-3
1.339134464E1,-2.519744914E-3,-6.490251981E-3,-2.748812549E-3
1.341015406E1,-6.872031372E-4,-4.657710437E-3,-9.162708884E-4
1.342896344E1,-6.490251981E-3,1.145338640E-3,2.748812549E-3
1.344777287E1,-1.015533600E-2,-2.825168660E-3,4.886778072E-3
1.346658224E1,-3.741439432E-3,-7.711946499E-3,3.665083554E-3
1.348539167E1,-7.635590737E-5,3.588727675E-3,1.221694518E-3
1.350420109E1,8.399150101E-4,4.504998680E-3,3.359660041E-3
1.352301047E1,-3.436015919E-3,8.399150101E-4,4.581354558E-3
1.354181990E1,-4.657710437E-3,7.253811229E-3,3.970507067E-3
1.356062927E1,-3.817795368E-4,1.030804776E-2,2.137965523E-3
1.357943870E1,1.450762269E-3,8.780929260E-3,2.443389036E-3
1.359824807E1,-3.817795368E-4,7.253811229E-3,9.162708884E-4
1.361705750E1,-3.741439432E-3,1.305686031E-2,-0.000000000E0
1.363586688E1,-4.352286924E-3,1.397313084E-2,-0.000000000E0
1.365467630E1,-3.130592173E-3,9.391776286E-3,1.527118147E-3
1.367348568E1,-3.130592173E-3,3.588727675E-3,-0.000000000E0
1.369229511E1,-1.908897655E-3,3.283303929E-3,-9.162708884E-4
1.371110453E1,5.344913807E-4,2.367033157E-3,-1.832541777E-3
1.372991391E1,1.756185899E-3,-7.635590737E-5,-9.162708884E-4
1.374872333E1,2.977880416E-3,-4.352286924E-3,-1.221694518E-3
1.376753271E1,2.977880416E-3,-3.436015919E-3,-3.054236295E-3
1.378634214E1,3.588727675E-3,-2.825168660E-3,-4.275931045E-3
1.380515151E1,4.199574701E-3,-5.268557463E-3,-3.665083554E-3
1.382396094E1,4.504998680E-3,-8.628217503E-3,-9.162708884E-4
1.384277031E1,4.199574701E-3,-8.017370477E-3,-6.108472589E-4
1.386157974E1,6.032116711E-3,-5.268557463E-3,6.108472589E-4
1.388038912E1,1.000262424E-2,-7.711946499E-3,3.359660041E-3
1.389919854E1,1.091889478E-2,-1.412584260E-2,7.635590620E-3
1.391800797E1,6.948387716E-3,-8.933641016E-3,1.068982668E-2
1.393681734E1,2.290677221E-4,-9.926267667E-4,1.221694518E-2
1.395562677E1,-5.268557463E-3,4.199574701E-3,1.160609815E-2
1.397443615E1,-9.849912487E-3,3.588727675E-3,1.068982668E-2
1.399324557E1,-1.168245357E-2,6.948387716E-3,6.719320081E-3
1.401205495E1,-8.017370477E-3,6.642963737E-3,1.527118147E-3
1.403086438E1,-1.603474026E-3,3.588727675E-3,-9.162708884E-4
1.404967375E1,-6.872031372E-4,-6.872031372E-4,-6.413896102E-3
1.406848318E1,-1.908897655E-3,3.894151188E-3,-1.313321572E-2
1.408729255E1,-1.298050396E-3,3.588727675E-3,-1.557660475E-2
1.410610198E1,-1.908897655E-3,-2.825168660E-3,-1.527118124E-2
1.412491141E1,5.344913807E-4,-9.544488043E-3,-1.313321572E-2
1.414372078E1,5.421269219E-3,-8.017370477E-3,-1.313321572E-2
1.416253021E1,7.559234742E-3,2.290677221E-4,-1.191152167E-2
1.418133958E1,7.559234742E-3,5.344913807E-4,-7.635590620E-3
1.420014901E1,6.032116711E-3,-4.046862945E-3,-2.443389036E-3
1.421895839E1,3.588727675E-3,-1.908897655E-3,-9.162708884E-4
1.423776781E1,3.283303929E-3,2.367033157E-3,-0.000000000E0
1.425657719E1,3.283303929E-3,3.894151188E-3,3.359660041E-3
1.427538662E1,2.061609412E-3,2.061609412E-3,7.635590620E-3
1.429419599E1,-3.817795368E-4,6.337540224E-3,9.773556143E-3
1.431300542E1,-2.519744914E-3,1.305686031E-2,1.099525020E-2
1.433181484E1,-1.908897655E-3,1.336228382E-2,1.221694518E-2
1.435062422E1,8.399150101E-4,8.475505747E-3,1.221694518E-2
1.436943365E1,4.504998680E-3,7.253811229E-3,1.099525020E-2
1.438824302E1,6.642963737E-3,1.000262424E-2,1.007897966E-2
1.440705245E1,5.726693198E-3,1.275143679E-2,9.162709117E-3
1.442586182E1,2.367033157E-3,1.214058883E-2,7.635590620E-3
1.444467125E1,2.061609412E-3,1.305686031E-2,7.024743594E-3
1.446348063E1,4.504998680E-3,1.336228382E-2,6.108472589E-3
1.448229005E1,3.283303929E-3,1.336228382E-2,4.886778072E-3
1.450109943E1,3.283303929E-3,1.091889478E-2,3.970507067E-3
1.451990886E1,3.894151188E-3,9.391776286E-3,4.886778072E-3
1.453871823E1,3.588727675E-3,8.170082234E-3,5.803049076E-3
1.455752766E1,2.977880416E-3,6.948387716E-3,5.803049076E-3
1.457633703E1,8.399150101E-4,5.115845706E-3,5.192201585E-3
1.459514646E1,-6.872031372E-4,6.032116711E-3,3.970507067E-3
1.461395583E1,-7.635590737E-5,6.642963737E-3,3.970507067E-3
1.463276526E1,2.061609412E-3,2.977880416E-3,3.665083554E-3
1.465157464E1,2.672456671E-3,1.450762269E-3,1.832541777E-3
1.467038406E1,1.756185899E-3,1.450762269E-3,1.527118147E-3
1.468919344E1,-3.817795368E-4,4.199574701E-3,1.832541777E-3
1.470800287E1,-4.352286924E-3,5.115845706E-3,-0.000000000E0
1.472681229E1,-4.963133950E-3,3.894151188E-3,-3.665083554E-3
1.474562167E1,-7.635590737E-5,-6.872031372E-4,-5.192201585E-3
1.476443104E1,1.450762269E-3,-1.908897655E-3,-4.581354558E-3
1.478324047E1,-9.926267667E-4,-3.741439432E-3,-5.497625098E-3
1.480204990E1,1.450762269E-3,-5.879404955E-3,-7.941014133E-3
1.482085927E1,2.367033157E-3,-6.872031372E-4,-1.007897966E-2
1.483966870E1,2.061609412E-3,2.290677221E-4,-1.007897966E-2
1.485847807E1,2.290677221E-4,-3.130592173E-3,-8.246437646E-3
1.487728750E1,5.344913807E-4,-3.741439432E-3,-7.024743594E-3
1.489609688E1,3.894151188E-3,-3.130592173E-3,-5.803049076E-3
1.491490630E1,4.199574701E-3,-2.519744914E-3,-4.886778072E-3
1.493371568E1,2.367033157E-3,-6.872031372E-4,-2.443389036E-3
1.495252511E1,-7.635590737E-5,1.145338640E-3,9.162708884E-4
1.497133448E1,-3.741439432E-3,2.061609412E-3,1.527118147E-3
1.499014391E1,-8.017370477E-3,7.864658721E-3,3.054236295E-3
1.500895328E1,-9.849912487E-3,1.000262424E-2,3.665083554E-3
1.502776271E1,-6.795675959E-3,5.726693198E-3,1.832541777E-3
1.504657208E1,-2.214321401E-3,4.810422193E-3,-1.221694518E-3
1.506538151E1,8.399150101E-4,7.864658721E-3,-2.748812549E-3
1.508419089E1,1.450762269E-3,6.337540224E-3,-3.359660041E-3
1.510300031E1,1.145338640E-3,5.115845706E-3,-3.970507067E-3
1.512180969E1,3.283303929E-3,5.421269219E-3,-3.054236295E-3
1.514061912E1,5.115845706E-3,3.283303929E-3,-3.054236295E-3
1.515942849E1,3.588727675E-3,1.145338640E-3,-2.748812549E-3
1.517823792E1,2.672456671E-3,2.977880416E-3,-3.054236295E-4
1.519704729E1,2.977880416E-3,4.199574701E-3,4.275931045E-3
1.521585667E1,-1.908897655E-3,2.672456671E-3,6.719320081E-3
1.523466609E1,-9.239064530E-3,5.421269219E-3,6.719320081E-3
1.525347547E1,-1.107160654E-2,4.199574701E-3,8.246437646E-3
1.527228490E1,-8.933641016E-3,-7.635590737E-5,7.635590620E-3
1.529109432E1,-7.711946499E-3,-3.130592173E-3,5.803049076E-3
1.530990370E1,-5.268557463E-3,-6.490251981E-3,1.221694518E-3
1.532871313E1,2.290677221E-4,-4.046862945E-3,-3.054236295E-3
1.534752250E1,6.642963737E-3,-7.101099472E-3,-3.359660041E-3
1.536633188E1,8.780929260E-3,-1.626380906E-2,-8.551862091E-3
1.538514130E1,5.115845706E-3,-1.320957206E-2,-1.740914769E-2
1.540395068E1,7.559234742E-3,-4.352286924E-3,-2.321219631E-2
1.542276011E1,1.000262424E-2,-7.101099472E-3,-2.412846684E-2
1.544156953E1,8.780929260E-3,-1.290414855E-2,-2.351761982E-2
1.546037891E1,1.336228382E-2,-1.779092662E-2,-2.076880634E-2
1.547918828E1,1.641651988E-2,-4.352286924E-3,-1.863084175E-2
1.549799771E1,1.397313084E-2,5.115845706E-3,-1.740914769E-2
1.551680708E1,1.152974181E-2,1.450762269E-3,-9.162709117E-3
1.553561651E1,7.864658721E-3,2.672456671E-3,-9.162708884E-4
1.555442589E1,3.588727675E-3,1.305686031E-2,4.275931045E-3
1.557323531E1,1.756185899E-3,1.763821393E-2,7.330167107E-3
1.559204469E1,-3.817795368E-4,1.947075687E-2,1.282779220E-2
1.561085412E1,-2.519744914E-3,2.160872146E-2,1.801999472E-2
1.562966349E1,-2.214321401E-3,2.680092305E-2,2.229592577E-2
1.564847292E1,-3.130592173E-3,2.710634656E-2,2.412846684E-2
1.566728229E1,-7.406522986E-3,2.588465251E-2,2.596100792E-2
1.568609172E1,-8.017370477E-3,2.374668792E-2,2.596100792E-2
1.570490109E1,-4.657710437E-3,2.435753495E-2,2.351761982E-2
1.572371052E1,-1.603474026E-3,2.099787444E-2,2.168507688E-2
1.574251990E1,8.399150101E-4,1.672194339E-2,1.893626526E-2
1.576132932E1,2.367033157E-3,1.641651988E-2,1.710372418E-2
1.578013870E1,1.450762269E-3,1.488940232E-2,1.343864016E-2
1.579894807E1,3.894151188E-3,1.336228382E-2,1.007897966E-2
1.581775750E1,4.810422193E-3,1.275143679E-2,1.099525020E-2
1.583656688E1,2.977880416E-3,1.183516532E-2,1.038440317E-2
1.585537630E1,1.145338640E-3,1.458397787E-2,8.857285604E-3
1.587418568E1,2.290677221E-4,1.152974181E-2,5.497625098E-3
1.589299510E1,5.344913807E-4,9.086352773E-3,2.443389036E-3
1.591180448E1,2.290677221E-4,5.115845706E-3,3.359660041E-3
1.593061391E1,2.290677221E-4,-6.872031372E-4,9.162708884E-4
1.594942328E1,1.756185899E-3,-1.603474026E-3,-0.000000000E0
1.596823271E1,3.588727675E-3,-9.926267667E-4,3.054236295E-4
1.598704208E1,3.283303929E-3,-6.795675959E-3,-1.221694518E-3
1.600585151E1,2.672456671E-3,-7.711946499E-3,-0.000000000E0
1.602466089E1,3.588727675E-3,-4.657710437E-3,4.275931045E-3
1.604347031E1,2.290677221E-4,-5.573981442E-3,6.108472589E-3
1.606227969E1,-1.015533600E-2,-9.926267667E-4,3.665083554E-3
1.608108906E1,-1.473669056E-2,2.367033157E-3,-1.221694518E-3
1.609989849E1,-1.565296017E-2,5.421269219E-3,6.108472589E-4
1.611870786E1,-1.565296017E-2,-1.298050396E-3,-0.000000000E0
1.613751729E1,-8.322793990E-3,-7.101099472E-3,-4.581354558E-3
1.615632667E1,8.399150101E-4,-1.298050396E-3,-8.857285604E-3
1.617513609E1,7.253811229E-3,-1.298050396E-3,-1.099525020E-2
1.619394547E1,1.000262424E-2,-8.628217503E-3,-1.007897966E-2
1.621275490E1,1.152974181E-2,-9.849912487E-3,-9.162709117E-3
1.623156427E1,1.214058883E-2,-6.184828468E-3,-8.857285604E-3
1.625037365E1,9.391776286E-3,-4.352286924E-3,-7.330167107E-3
1.626918307E1,6.032116711E-3,-1.298050396E-3,-3.054236295E-3
1.628799245E1,2.367033157E-3,2.290677221E-4,2.443389036E-3
1.630680188E1,-2.519744914E-3,6.337540224E-3,5.192201585E-3
1.632561125E1,-7.101099472E-3,1.122431830E-2,8.551862091E-3
1.634442068E1,-7.711946499E-3,8.780929260E-3,1.130067464E-2
1.636323005E1,-4.352286924E-3,7.559234742E-3,1.160609815E-2
1.638203948E1,-9.926267667E-4,7.253811229E-3,1.130067464E-2
1.640084886E1,-3.817795368E-4,7.864658721E-3,7.941014133E-3
1.641965823E1,-3.817795368E-4,6.948387716E-3,7.024743594E-3
1.643846766E1,1.756185899E-3,4.199574701E-3,5.803049076E-3
1.645727703E1,3.588727675E-3,2.061609412E-3,3.970507067E-3
1.647608646E1,2.672456671E-3,1.756185899E-3,3.054236295E-4
1.649489583E1,2.061609412E-3,3.588727675E-3,6.108472589E-4
1.651370526E1,2.061609412E-3,2.061609412E-3,6.108472589E-4
1.653251464E1,5.344913807E-4,2.061609412E-3,-1.527118147E-3
1.655132406E1,2.290677221E-4,4.504998680E-3,-9.162708884E-4
1.657013344E1,1.450762269E-3,6.032116711E-3,1.221694518E-3
1.658894281E1,1.450762269E-3,4.199574701E-3,9.162708884E-4
1.660775224E1,1.756185899E-3,2.672456671E-3,-9.162708884E-4
1.662656162E1,3.588727675E-3,8.399150101E-4,-1.527118147E-3
1.664537104E1,5.421269219E-3,1.450762269E-3,-2.137965523E-3
1.666418042E1,6.642963737E-3,2.367033157E-3,3.054236295E-4
1.668298984E1,2.977880416E-3,8.399150101E-4,6.108472589E-4
1.670179922E1,-3.817795368E-4,3.283303929E-3,-0.000000000E0
1.672060859E1,2.977880416E-3,7.559234742E-3,3.665083554E-3
1.673941802E1,6.948387716E-3,4.199574701E-3,7.330167107E-3
1.675822740E1,2.672456671E-3,8.399150101E-4,5.192201585E-3
1.677703682E1,-3.130592173E-3,8.170082234E-3,-0.000000000E0
1.679584620E1,-2.519744914E-3,1.030804776E-2,-1.832541777E-3
1.681465563E1,-2.825168660E-3,4.810422193E-3,-0.000000000E0
1.683346500E1,-3.436015919E-3,-3.130592173E-3,3.054236295E-3
1.685227438E1,1.145338640E-3,-1.298050396E-3,1.527118147E-3
1.687108380E1,1.756185899E-3,8.170082234E-3,3.054236295E-4
1.688989318E1,5.344913807E-4,6.948387716E-3,9.162708884E-4
1.690870261E1,1.145338640E-3,2.061609412E-3,2.748812549E-3
1.692751198E1,3.588727675E-3,2.977880416E-3,2.748812549E-3
1.694632136E1,5.115845706E-3,4.504998680E-3,-0.000000000E0
1.696513078E1,4.810422193E-3,5.421269219E-3,-6.108472589E-4
1.698394016E1,3.588727675E-3,2.977880416E-3,3.054236295E-4
1.700274958E1,3.894151188E-3,5.344913807E-4,1.221694518E-3
1.702155896E1,3.588727675E-3,4.199574701E-3,1.832541777E-3
1.704036839E1,2.977880416E-3,4.810422193E-3,3.359660041E-3
1.705917776E1,1.756185899E-3,2.977880416E-3,5.192201585E-3
1.707798714E1,2.367033157E-3,-2.214321401E-3,3.359660041E-3
1.709679656E1,4.504998680E-3,-1.908897655E-3,3.054236295E-3
1.711560594E1,5.115845706E-3,2.290677221E-4,3.970507067E-3
1.713441537E1,4.810422193E-3,8.399150101E-4,3.665083554E-3
1.715322474E1,4.810422193E-3,3.283303929E-3,1.832541777E-3
1.717203412E1,1.756185899E-3,3.894151188E-3,1.527118147E-3
1.719084354E1,2.290677221E-4,2.977880416E-3,-0.000000000E0
1.720965292E1,2.367033157E-3,3.283303929E-3,3.054236295E-3
1.722846234E1,3.894151188E-3,6.337540224E-3,4.886778072E-3
1.724727172E1,1.450762269E-3,7.559234742E-3,3.970507067E-3
1.726608109E1,-2.214321401E-3,6.337540224E-3,3.665083554E-3
1.728489052E1,-1.603474026E-3,5.726693198E-3,3.054236295E-3
1.730369990E1,-1.298050396E-3,3.588727675E-3,-1.221694518E-3
1.732250932E1,-2.519744914E-3,1.450762269E-3,-2.137965523E-3
1.734131870E1,-6.872031372E-4,4.199574701E-3,-1.527118147E-3
1.736012807E1,1.450762269E-3,1.145338640E-3,-9.162708884E-4
1.737893750E1,1.756185899E-3,1.756185899E-3,-1.221694518E-3
1.739774688E1,2.367033157E-3,1.450762269E-3,-1.832541777E-3
1.741655630E1,5.115845706E-3,8.399150101E-4,-4.886778072E-3
1.743536568E1,9.697199799E-3,-3.130592173E-3,-6.108472589E-3
1.745417505E1,1.030804776E-2,-7.101099472E-3,-8.551862091E-3
1.747298448E1,2.367033157E-3,-2.519744914E-3,-1.374406368E-2
1.749179386E1,-3.817795368E-4,-6.872031372E-4,-1.557660475E-2
1.751060328E1,1.450762269E-3,-8.017370477E-3,-1.160609815E-2
1.752941266E1,1.450762269E-3,-1.290414855E-2,-1.068982668E-2
1.754822203E1,3.283303929E-3,-6.184828468E-3,-1.130067464E-2
1.756703146E1,4.810422193E-3,6.948387716E-3,-7.024743594E-3
1.758584083E1,6.032116711E-3,6.642963737E-3,-3.054236295E-4
1.760465021E1,3.283303929E-3,4.504998680E-3,3.359660041E-3
1.762345964E1,2.672456671E-3,9.391776286E-3,6.108472589E-3
1.764226901E1,4.810422193E-3,1.336228382E-2,7.024743594E-3
1.766107844E1,4.504998680E-3,1.550024934E-2,1.038440317E-2
1.767988781E1,3.588727675E-3,1.550024934E-2,1.343864016E-2
1.769869719E1,2.061609412E-3,1.885990985E-2,1.588202827E-2
1.771750662E1,8.399150101E-4,2.191414498E-2,1.466033421E-2
1.773631599E1,2.672456671E-3,2.466295846E-2,1.557660475E-2
1.775512536E1,9.391776286E-3,2.283041552E-2,1.832541823E-2
1.777393479E1,1.458397787E-2,2.008160390E-2,1.954711229E-2
1.779274417E1,1.427855436E-2,2.405211143E-2,1.618745178E-2
1.781155359E1,1.183516532E-2,2.924431302E-2,1.527118124E-2
1.783036297E1,1.427855436E-2,2.649549954E-2,1.863084175E-2
1.784917234E1,1.763821393E-2,2.191414498E-2,2.351761982E-2
1.786798177E1,1.794363745E-2,2.680092305E-2,2.596100792E-2
1.788679115E1,1.733279042E-2,2.557922900E-2,2.809897438E-2
1.790560052E1,1.488940232E-2,2.466295846E-2,2.901524492E-2
1.792440995E1,1.397313084E-2,2.527380548E-2,3.329117596E-2
1.794321932E1,1.122431830E-2,2.496838197E-2,3.634541109E-2
1.796202875E1,3.894151188E-3,3.046600707E-2,3.481829539E-2
1.798083813E1,-1.603474026E-3,3.535278514E-2,2.962609194E-2
1.799964750E1,-7.635590737E-5,3.596363217E-2,2.687728032E-2
1.801845693E1,4.504998680E-3,2.893888950E-2,2.382304333E-2
1.803726630E1,6.337540224E-3,1.794363745E-2,1.710372418E-2
1.805607568E1,7.253811229E-3,2.130329795E-2,1.130067464E-2
1.807488510E1,1.061347127E-2,1.824906096E-2,7.635590620E-3
1.809369448E1,1.488940232E-2,8.475505747E-3,6.719320081E-3
1.811250386E1,1.733279042E-2,6.337540224E-3,7.941014133E-3
1.813131328E1,1.550024934E-2,1.214058883E-2,9.468132630E-3
1.815012266E1,1.275143679E-2,9.391776286E-3,7.330167107E-3
1.816893208E1,1.000262424E-2,7.253811229E-3,3.970507067E-3
1.818774146E1,1.030804776E-2,6.642963737E-3,6.108472589E-3
1.820655083E1,6.948387716E-3,5.421269219E-3,1.038440317E-2
1.822536026E1,2.290677221E-4,7.559234742E-3,1.557660475E-2
1.824416964E1,8.399150101E-4,1.122431830E-2,1.832541823E-2
1.826297901E1,6.032116711E-3,1.733279042E-2,1.985253580E-2
1.828178844E1,8.475505747E-3,1.702736691E-2,2.199050039E-2
1.830059781E1,5.421269219E-3,1.672194339E-2,2.473931387E-2
1.831940719E1,4.810422193E-3,1.855448633E-2,2.779355086E-2
1.833821662E1,6.948387716E-3,2.099787444E-2,2.932066843E-2
1.835702599E1,7.253811229E-3,2.069245093E-2,2.687728032E-2
1.837583536E1,7.864658721E-3,2.435753495E-2,1.924168877E-2
1.839464479E1,7.864658721E-3,1.977618039E-2,1.404948719E-2
1.841345417E1,9.697199799E-3,1.458397787E-2,8.246437646E-3
1.843226354E1,7.559234742E-3,9.391776286E-3,6.108472589E-3
1.845107297E1,-1.298050396E-3,6.948387716E-3,3.054236295E-3
1.846988234E1,-8.933641016E-3,-1.603474026E-3,-2.443389036E-3
1.848869177E1,-2.214321401E-3,2.290677221E-4,-5.803049076E-3
1.850750115E1,1.214058883E-2,-5.573981442E-3,-4.275931045E-3
1.852631052E1,1.519482583E-2,-1.107160654E-2,-1.221694518E-3
1.854511990E1,9.697199799E-3,-8.017370477E-3,2.748812549E-3
1.856392932E1,3.283303929E-3,-3.436015919E-3,2.137965523E-3
1.858273870E1,2.290677221E-4,-4.657710437E-3,1.221694518E-3
1.860154807E1,5.344913807E-4,-4.963133950E-3,2.137965523E-3
1.862035750E1,1.756185899E-3,-9.239064530E-3,3.665083554E-3
1.863916688E1,2.672456671E-3,-8.017370477E-3,3.054236295E-3
1.865797625E1,1.145338640E-3,-7.406522986E-3,9.162708884E-4
1.867678568E1,1.756185899E-3,-3.741439432E-3,-3.054236295E-4
1.869559505E1,2.061609412E-3,-2.214321401E-3,2.137965523E-3
1.871440443E1,-1.603474026E-3,-4.352286924E-3,-3.054236295E-4
1.873321386E1,-3.436015919E-3,-5.268557463E-3,-4.886778072E-3
1.875202323E1,2.672456671E-3,-2.214321401E-3,-8.857285604E-3
1.877083266E1,1.030804776E-2,-7.711946499E-3,-8.857285604E-3
1.878964203E1,9.697199799E-3,-1.168245357E-2,-6.719320081E-3
1.880845141E1,-3.436015919E-3,-7.711946499E-3,-7.330167107E-3
1.882726078E1,-1.382041909E-2,-3.817795368E-4,-1.038440317E-2
1.884607021E1,-5.573981442E-3,-1.298050396E-3,-8.246437646E-3
1.886487958E1,1.397313084E-2,-8.322793990E-3,-0.000000000E0
1.888368896E1,2.252499200E-2,-1.809635013E-2,3.970507067E-3
1.890249839E1,1.275143679E-2,-1.320957206E-2,-0.000000000E0
1.892130776E1,2.290677221E-4,-3.741439432E-3,-5.497625098E-3
1.894011714E1,-4.046862945E-3,-1.015533600E-2,-6.413896102E-3
1.895892656E1,-3.817795368E-4,-1.687465608E-2,-3.359660041E-3
1.897773594E1,1.091889478E-2,-1.931804419E-2,-1.221694518E-3
1.899654531E1,1.916533336E-2,-1.290414855E-2,-2.137965523E-3
1.901535474E1,1.794363745E-2,-4.046862945E-3,1.527118147E-3
1.903416412E1,9.391776286E-3,2.290677221E-4,5.497625098E-3
1.905297349E1,-1.298050396E-3,1.122431830E-2,7.941014133E-3
1.907178292E1,-5.879404955E-3,1.672194339E-2,7.330167107E-3
1.909059229E1,-8.017370477E-3,1.611109637E-2,6.719320081E-3
1.910940167E1,-6.184828468E-3,2.038702741E-2,6.719320081E-3
1.912821104E1,-2.214321401E-3,1.733279042E-2,9.773556143E-3
1.914702047E1,-6.872031372E-4,1.611109637E-2,1.282779220E-2
1.916582984E1,-1.603474026E-3,1.885990985E-2,1.252236869E-2
1.918463927E1,-3.130592173E-3,1.824906096E-2,1.038440317E-2
1.920344865E1,2.061609412E-3,6.948387716E-3,8.551862091E-3
1.922225802E1,1.091889478E-2,-1.603474026E-3,7.635590620E-3
1.924106740E1,1.397313084E-2,-4.657710437E-3,5.497625098E-3
1.925987682E1,1.091889478E-2,-1.908897655E-3,2.748812549E-3
1.927868620E1,1.030804776E-2,-1.603474026E-3,1.832541777E-3
1.929749557E1,1.244601328E-2,-3.436015919E-3,4.275931045E-3
1.931630500E1,1.214058883E-2,-3.817795368E-4,8.857285604E-3
1.933511438E1,7.253811229E-3,4.504998680E-3,1.466033421E-2
1.935392375E1,1.145338640E-3,1.061347127E-2,1.832541823E-2
1.937273318E1,-2.214321401E-3,1.458397787E-2,2.137965336E-2
1.939154255E1,-1.298050396E-3,1.550024934E-2,2.412846684E-2
1.941035193E1,-1.908897655E-3,2.038702741E-2,2.626643144E-2
1.942916130E1,-3.436015919E-3,2.099787444E-2,2.718270384E-2
1.944797073E1,-2.519744914E-3,1.702736691E-2,2.443389036E-2
1.946678010E1,-6.872031372E-4,1.550024934E-2,2.015795931E-2
1.948558948E1,2.672456671E-3,1.427855436E-2,1.649287529E-2
1.950439891E1,2.367033157E-3,1.152974181E-2,1.343864016E-2
1.952320828E1,2.367033157E-3,1.244601328E-2,9.468132630E-3
1.954201766E1,1.145338640E-3,1.061347127E-2,5.803049076E-3
1.956082703E1,3.894151188E-3,5.421269219E-3,3.970507067E-3
1.957963646E1,1.122431830E-2,5.421269219E-3,6.719320081E-3
1.959844583E1,1.580567285E-2,2.672456671E-3,1.068982668E-2
1.961725521E1,1.122431830E-2,2.061609412E-3,1.007897966E-2
1.963606464E1,2.367033157E-3,1.122431830E-2,4.886778072E-3
1.965487401E1,-1.298050396E-3,1.152974181E-2,5.497625098E-3
1.967368339E1,5.344913807E-4,5.115845706E-3,6.413896102E-3
1.969249276E1,5.344913807E-4,6.337540224E-3,6.413896102E-3
1.971130219E1,-3.436015919E-3,8.170082234E-3,8.551862091E-3
1.973011156E1,-1.015533600E-2,3.283303929E-3,1.007897966E-2
1.974892094E1,-1.412584260E-2,1.756185899E-3,1.404948719E-2
1.976773031E1,-7.711946499E-3,-3.817795368E-4,1.374406368E-2
1.978653974E1,5.344913807E-4,3.588727675E-3,1.221694518E-2
1.980534912E1,1.756185899E-3,4.810422193E-3,8.857285604E-3
1.982415849E1,-1.298050396E-3,2.290677221E-4,8.857285604E-3
1.984296792E1,-1.908897655E-3,-5.573981442E-3,8.246437646E-3
1.986177729E1,-1.908897655E-3,-3.130592173E-3,5.803049076E-3
1.988058667E1,-3.436015919E-3,-6.872031372E-4,3.359660041E-3
1.989939609E1,-5.879404955E-3,-7.635590737E-5,1.832541777E-3
1.991820547E1,-5.879404955E-3,-1.603474026E-3,3.054236295E-4
1.993701484E1,-2.825168660E-3,-4.657710437E-3,-2.748812549E-3
1.995582422E1,-2.519744914E-3,-4.963133950E-3,-4.581354558E-3
1.997463365E1,-5.879404955E-3,-6.490251981E-3,-4.886778072E-3
1.999344302E1,-6.184828468E-3,-9.239064530E-3,-6.413896102E-3
2.001225240E1,-1.603474026E-3,-1.076618303E-2,-8.857285604E-3
2.003106182E1,3.588727675E-3,-1.320957206E-2,-9.468132630E-3
2.004987120E1,3.588727675E-3,-1.748550311E-2,-1.068982668E-2
2.006868057E1,2.367033157E-3,-1.779092662E-2,-1.191152167E-2
2.008748995E1,2.672456671E-3,-1.962346770E-2,-1.252236869E-2
2.010629938E1,1.145338640E-3,-2.237228118E-2,-1.404948719E-2
2.012510875E1,-2.825168660E-3,-2.176143415E-2,-1.710372418E-2
2.014391813E1,-5.879404955E-3,-1.687465608E-2,-1.893626526E-2
2.016272750E1,-7.101099472E-3,-1.565296017E-2,-1.985253580E-2
2.018153693E1,-1.259872504E-2,-1.687465608E-2,-2.718270384E-2
2.020034630E1,-1.229330152E-2,-1.626380906E-2,-3.329117596E-2
2.021915568E1,-2.214321401E-3,-2.970244735E-2,-3.145863488E-2
2.023796505E1,2.977880416E-3,-3.825430945E-2,-2.901524492E-2
2.025677448E1,8.399150101E-4,-3.214583546E-2,-2.107422985E-2
2.027558386E1,-3.130592173E-3,-2.389939874E-2,-1.068982668E-2
2.029439323E1,-6.184828468E-3,-1.687465608E-2,-3.054236295E-4
2.031320260E1,-8.628217503E-3,-1.259872504E-2,7.024743594E-3
2.033201203E1,-1.168245357E-2,-8.322793990E-3,7.330167107E-3
2.035082141E1,-1.382041909E-2,-6.490251981E-3,6.413896102E-3
2.036963078E1,-1.290414855E-2,-1.046075951E-2,6.413896102E-3
2.038844016E1,-1.412584260E-2,-1.229330152E-2,3.970507067E-3
2.040724958E1,-1.809635013E-2,-7.711946499E-3,6.108472589E-4
2.042605896E1,-2.206685767E-2,-4.352286924E-3,-3.054236295E-4
2.044486833E1,-2.145601064E-2,-4.963133950E-3,1.832541777E-3
2.046367776E1,-1.809635013E-2,-1.015533600E-2,1.832541777E-3
2.048248714E1,-1.687465608E-2,-1.931804419E-2,-8.551862091E-3
2.050129651E1,-1.534753758E-2,-2.573194169E-2,-2.199050039E-2
2.052010589E1,-1.015533600E-2,-3.672719002E-2,-2.840439789E-2
2.053891531E1,-8.017370477E-3,-4.741701856E-2,-2.382304333E-2
2.055772469E1,-1.046075951E-2,-4.680617154E-2,-1.863084175E-2
2.057653406E1,-1.504211407E-2,-3.458922729E-2,-2.260134928E-2
2.059534344E1,-1.626380906E-2,-1.687465608E-2,-2.290677279E-2
2.061415286E1,-1.382041909E-2,-1.718007959E-2,-1.618745178E-2
2.063296224E1,-1.046075951E-2,-2.115058713E-2,-9.162709117E-3
2.065177162E1,-5.268557463E-3,-1.626380906E-2,-6.108472589E-3
2.067058099E1,-6.872031372E-4,-1.351499557E-2,-4.886778072E-3
2.068939042E1,2.061609412E-3,-1.259872504E-2,-3.054236295E-3
2.070819979E1,2.977880416E-3,-1.290414855E-2,-9.162708884E-4
2.072700917E1,-7.635590737E-5,-1.229330152E-2,-1.527118147E-3
2.074581854E1,-1.046075951E-2,-9.926267667E-4,-5.192201585E-3
2.076462797E1,-2.084516361E-2,6.642963737E-3,-8.857285604E-3
2.078343734E1,-2.298312820E-2,5.726693198E-3,-1.038440317E-2
2.080224672E1,-1.534753758E-2,-2.825168660E-3,-7.635590620E-3
2.082105609E1,-5.879404955E-3,-6.490251981E-3,-5.803049076E-3
2.083986552E1,-1.908897655E-3,-6.795675959E-3,-7.635590620E-3
2.085867490E1,-3.130592173E-3,-6.795675959E-3,-7.635590620E-3
2.087748427E1,-1.908897655E-3,-7.406522986E-3,-6.719320081E-3
2.089629365E1,2.061609412E-3,-1.015533600E-2,-2.748812549E-3
2.091510307E1,3.283303929E-3,-1.259872504E-2,1.832541777E-3
2.093391245E1,-1.908897655E-3,-1.320957206E-2,5.192201585E-3
2.095272182E1,-9.239064530E-3,-5.879404955E-3,8.857285604E-3
2.097153120E1,-1.626380906E-2,8.399150101E-4,1.221694518E-2
2.099034063E1,-2.359397523E-2,5.726693198E-3,9.162709117E-3
2.100915000E1,-2.878617682E-2,1.336228382E-2,6.413896102E-3
2.102795938E1,-2.420482226E-2,1.794363745E-2,3.665083554E-3
2.104676875E1,-1.412584260E-2,1.672194339E-2,-1.527118147E-3
2.106557818E1,-5.573981442E-3,1.672194339E-2,-7.330167107E-3
2.108438755E1,-3.130592173E-3,1.702736691E-2,-1.557660475E-2
2.110319693E1,-5.879404955E-3,1.458397787E-2,-2.565558441E-2
2.112200630E1,-2.519744914E-3,9.086352773E-3,-2.932066843E-2
2.114081573E1,6.948387716E-3,1.450762269E-3,-2.962609194E-2
2.115962510E1,1.366770733E-2,-2.214321401E-3,-2.657185495E-2
2.117843448E1,1.580567285E-2,5.344913807E-4,-2.565558441E-2
2.119724386E1,1.611109637E-2,2.061609412E-3,-2.443389036E-2
2.121605328E1,1.152974181E-2,1.756185899E-3,-2.076880634E-2
2.123486266E1,4.504998680E-3,4.810422193E-3,-1.801999472E-2
2.125367203E1,-7.635590737E-5,8.780929260E-3,-1.160609815E-2
2.127248141E1,-7.635590737E-5,7.559234742E-3,-9.162708884E-4
2.129129078E1,1.450762269E-3,6.032116711E-3,1.007897966E-2
2.131010021E1,3.894151188E-3,5.115845706E-3,1.527118124E-2
2.132890958E1,3.894151188E-3,1.336228382E-2,2.107422985E-2
2.134771896E1,8.399150101E-4,2.191414498E-2,2.870982140E-2
2.136652833E1,-4.352286924E-3,2.893888950E-2,3.542914242E-2
2.138533776E1,-6.184828468E-3,3.474193811E-2,3.817795217E-2
2.140414714E1,-3.741439432E-3,3.871244565E-2,3.970507160E-2
2.142295651E1,1.145338640E-3,4.176668078E-2,4.092676565E-2
2.144176589E1,3.283303929E-3,4.298837483E-2,4.214845970E-2
2.146057531E1,5.726693198E-3,4.665346071E-2,3.939964995E-2
2.147938469E1,1.000262424E-2,4.970769584E-2,3.390202299E-2
2.149819406E1,1.183516532E-2,4.756972939E-2,2.596100792E-2
2.151700344E1,1.305686031E-2,4.085041210E-2,1.863084175E-2
2.153581286E1,1.458397787E-2,3.199312463E-2,1.252236869E-2
2.155462224E1,1.580567285E-2,2.985516004E-2,6.108472589E-3
2.157343162E1,1.702736691E-2,2.588465251E-2,-1.221694518E-3
2.159224099E1,1.794363745E-2,1.916533336E-2,-2.748812549E-3
2.161105042E1,1.794363745E-2,1.275143679E-2,-5.497625098E-3
2.162985979E1,1.794363745E-2,9.697199799E-3,-9.468132630E-3
2.164866917E1,1.763821393E-2,3.588727675E-3,-1.130067464E-2
2.166747854E1,1.550024934E-2,-1.298050396E-3,-1.404948719E-2
2.168628792E1,1.091889478E-2,-6.872031372E-4,-1.496575773E-2
2.170509734E1,6.032116711E-3,2.367033157E-3,-1.313321572E-2
2.172390672E1,1.756185899E-3,2.977880416E-3,-8.551862091E-3
2.174271609E1,-1.298050396E-3,3.894151188E-3,-4.275931045E-3
2.176152547E1,-2.519744914E-3,4.199574701E-3,-1.527118147E-3
2.178033490E1,-3.130592173E-3,3.894151188E-3,-0.000000000E0
2.179914427E1,-1.908897655E-3,2.061609412E-3,9.162708884E-4
2.181795365E1,-1.298050396E-3,1.145338640E-3,-6.108472589E-4
2.183676302E1,5.344913807E-4,-9.926267667E-4,-1.527118147E-3
2.185557245E1,2.061609412E-3,-2.825168660E-3,-2.748812549E-3
2.187438182E1,5.344913807E-4,-9.926267667E-4,-5.192201585E-3
2.189319120E1,1.756185899E-3,2.290677221E-4,-5.803049076E-3
2.191200057E1,7.253811229E-3,-2.214321401E-3,-2.748812549E-3
2.193081000E1,6.948387716E-3,-7.406522986E-3,-2.443389036E-3
2.194961938E1,2.290677221E-4,-4.046862945E-3,-3.665083554E-3
2.196842875E1,-1.908897655E-3,2.367033157E-3,-1.832541777E-3
2.198723813E1,-4.046862945E-3,2.367033157E-3,3.359660041E-3
2.200604750E1,-7.711946499E-3,2.290677221E-4,9.468132630E-3
2.202485693E1,-4.046862945E-3,-2.214321401E-3,1.343864016E-2
2.204366630E1,-3.817795368E-4,8.170082234E-3,1.527118124E-2
2.206247568E1,-2.214321401E-3,1.183516532E-2,1.618745178E-2
2.208128505E1,-4.352286924E-3,8.170082234E-3,1.985253580E-2
2.210009448E1,-3.436015919E-3,4.199574701E-3,2.076880634E-2
2.211890386E1,-2.214321401E-3,5.421269219E-3,1.679829881E-2
2.213771323E1,-6.872031372E-4,7.253811229E-3,1.374406368E-2
2.215652261E1,5.344913807E-4,3.894151188E-3,1.099525020E-2
2.217533203E1,3.894151188E-3,-9.926267667E-4,8.551862091E-3
2.219414141E1,7.864658721E-3,-2.214321401E-3,3.970507067E-3
2.221295078E1,1.152974181E-2,-3.130592173E-3,2.443389036E-3
2.223176016E1,1.397313084E-2,-4.657710437E-3,4.886778072E-3
2.225056953E1,1.183516532E-2,-5.879404955E-3,6.413896102E-3
2.226937896E1,7.253811229E-3,-7.635590737E-5,8.246437646E-3
2.228818833E1,-3.817795368E-4,4.199574701E-3,8.857285604E-3
2.230699771E1,-9.849912487E-3,8.170082234E-3,8.246437646E-3
2.232580708E1,-1.382041909E-2,1.152974181E-2,7.941014133E-3
2.234461651E1,-1.107160654E-2,1.030804776E-2,7.330167107E-3
2.236342589E1,-8.322793990E-3,6.642963737E-3,5.803049076E-3
2.238223526E1,-7.406522986E-3,6.032116711E-3,3.665083554E-3
2.240104464E1,-7.101099472E-3,4.504998680E-3,2.443389036E-3
2.241985406E1,-4.046862945E-3,8.399150101E-4,3.054236295E-3
2.243866344E1,-1.908897655E-3,-3.817795368E-4,3.359660041E-3
2.245747281E1,-1.298050396E-3,-6.872031372E-4,3.359660041E-3
2.247628219E1,-7.635590737E-5,5.344913807E-4,4.581354558E-3
2.249509162E1,-1.298050396E-3,1.145338640E-3,7.024743594E-3
2.251390099E1,-4.046862945E-3,8.399150101E-4,7.635590620E-3
2.253271036E1,-4.963133950E-3,1.450762269E-3,8.551862091E-3
2.255151974E1,-2.825168660E-3,2.977880416E-3,7.330167107E-3
2.257032917E1,-3.130592173E-3,2.061609412E-3,3.665083554E-3
2.258913854E1,-2.825168660E-3,1.756185899E-3,3.054236295E-4
2.260794792E1,1.450762269E-3,2.061609412E-3,2.748812549E-3
2.262675729E1,4.199574701E-3,2.290677221E-4,4.886778072E-3
2.264556667E1,8.399150101E-4,1.756185899E-3,-0.000000000E0
2.266437609E1,-2.519744914E-3,8.170082234E-3,-3.970507067E-3
2.268318547E1,-3.130592173E-3,5.421269219E-3,-2.443389036E-3
2.270199484E1,-3.741439432E-3,-7.635590737E-5,3.665083554E-3
2.272080422E1,-1.908897655E-3,-4.352286924E-3,7.635590620E-3
2.273961365E1,1.145338640E-3,-9.926267667E-4,4.581354558E-3
2.275842302E1,2.367033157E-3,3.588727675E-3,1.221694518E-3
2.277723240E1,5.344913807E-4,2.290677221E-4,2.137965523E-3
2.279604177E1,-2.214321401E-3,-1.603474026E-3,2.748812549E-3
2.281485115E1,-2.825168660E-3,1.450762269E-3,-0.000000000E0
2.283366057E1,-7.635590737E-5,2.367033157E-3,-2.137965523E-3
2.285246995E1,2.672456671E-3,1.145338640E-3,-1.832541777E-3
2.287127932E1,2.367033157E-3,-7.635590737E-5,-9.162708884E-4
2.289008870E1,1.450762269E-3,1.756185899E-3,-1.832541777E-3
2.290889813E1,1.145338640E-3,3.588727675E-3,-1.832541777E-3
2.292770750E1,1.450762269E-3,2.367033157E-3,-1.832541777E-3
2.294651688E1,3.894151188E-3,-1.298050396E-3,-1.221694518E-3
2.296532625E1,5.726693198E-3,-3.817795368E-4,-1.527118147E-3
2.298413563E1,4.504998680E-3,6.032116711E-3,-1.527118147E-3
2.300294505E1,2.672456671E-3,7.559234742E-3,-1.832541777E-3
2.302175443E1,8.399150101E-4,6.948387716E-3,-3.054236295E-4
2.304056380E1,3.588727675E-3,6.948387716E-3,2.748812549E-3
2.305937318E1,8.170082234E-3,2.672456671E-3,5.497625098E-3
2.307818261E1,9.086352773E-3,1.450762269E-3,6.108472589E-3
2.309699198E1,7.864658721E-3,-6.872031372E-4,5.803049076E-3
2.311580136E1,7.559234742E-3,2.290677221E-4,4.886778072E-3
2.313461073E1,5.726693198E-3,5.344913807E-4,5.497625098E-3
2.315342011E1,2.977880416E-3,8.399150101E-4,6.719320081E-3
2.317222953E1,8.399150101E-4,2.672456671E-3,6.413896102E-3
2.319103891E1,-1.908897655E-3,3.894151188E-3,5.192201585E-3
2.320984828E1,-3.130592173E-3,2.672456671E-3,3.054236295E-3
2.322865766E1,-1.298050396E-3,2.977880416E-3,1.832541777E-3
2.324746703E1,5.344913807E-4,2.367033157E-3,1.527118147E-3
2.326627646E1,8.399150101E-4,3.283303929E-3,1.527118147E-3
2.328508583E1,1.145338640E-3,5.115845706E-3,3.054236295E-3
2.330389521E1,5.421269219E-3,4.810422193E-3,7.330167107E-3
2.332270458E1,6.642963737E-3,1.756185899E-3,8.857285604E-3
2.334151401E1,4.199574701E-3,2.977880416E-3,5.497625098E-3
2.336032339E1,3.283303929E-3,6.032116711E-3,4.275931045E-3
2.337913276E1,2.290677221E-4,1.756185899E-3,5.497625098E-3
2.339794214E1,-9.926267667E-4,-4.352286924E-3,5.192201585E-3
2.341675156E1,3.588727675E-3,-8.322793990E-3,9.162708884E-4
2.343556094E1,6.337540224E-3,-2.825168660E-3,-4.886778072E-3
2.345437031E1,4.810422193E-3,1.145338640E-3,-8.246437646E-3
2.347317969E1,1.450762269E-3,2.290677221E-4,-7.635590620E-3
2.349198906E1,2.367033157E-3,-1.908897655E-3,-6.413896102E-3
2.351079844E1,4.504998680E-3,-2.214321401E-3,-5.803049076E-3
2.352960787E1,5.115845706E-3,-6.872031372E-4,-3.970507067E-3
2.354841724E1,1.450762269E-3,-3.817795368E-4,-3.359660041E-3
2.356722662E1,-9.926267667E-4,-3.130592173E-3,-3.970507067E-3
2.358603599E1,2.290677221E-4,-3.741439432E-3,-4.275931045E-3
2.360484542E1,-7.635590737E-5,-4.657710437E-3,-2.748812549E-3
2.362365479E1,-3.436015919E-3,-3.436015919E-3,-2.443389036E-3
2.364246417E1,-4.046862945E-3,-4.046862945E-3,-9.162708884E-4
2.366127354E1,-1.603474026E-3,-5.268557463E-3,-3.054236295E-4
2.368008292E1,-6.872031372E-4,-5.268557463E-3,-0.000000000E0
2.369889234E1,-2.519744914E-3,-5.573981442E-3,-3.054236295E-4
2.371770172E1,-4.352286924E-3,-5.879404955E-3,-2.748812549E-3
2.373651109E1,-5.573981442E-3,-6.184828468E-3,-5.192201585E-3
2.375532047E1,-4.657710437E-3,-3.741439432E-3,-5.803049076E-3
2.377412984E1,-3.436015919E-3,-6.490251981E-3,-3.970507067E-3
2.379293927E1,-4.046862945E-3,-5.573981442E-3,-2.137965523E-3
2.381174865E1,-5.879404955E-3,-4.657710437E-3,-1.527118147E-3
2.383055802E1,-8.322793990E-3,-4.046862945E-3,-2.748812549E-3
2.384936740E1,-6.490251981E-3,-5.573981442E-3,-3.970507067E-3
2.386817682E1,-3.741439432E-3,-7.406522986E-3,-4.581354558E-3
2.388698620E1,-9.926267667E-4,-1.046075951E-2,-7.635590620E-3
2.390579557E1,2.290677221E-4,-1.107160654E-2,-1.038440317E-2
2.392460495E1,8.399150101E-4,-1.229330152E-2,-1.068982668E-2
2.394341432E1,5.344913807E-4,-1.351499557E-2,-1.191152167E-2
2.396222370E1,-6.872031372E-4,-1.473669056E-2,-1.466033421E-2
2.398103313E1,2.367033157E-3,-1.473669056E-2,-1.252236869E-2
2.399984250E1,2.977880416E-3,-1.870719716E-2,-1.068982668E-2
2.401865188E1,-2.825168660E-3,-2.023431472E-2,-1.343864016E-2
2.403746125E1,-7.101099472E-3,-1.351499557E-2,-1.557660475E-2
2.405627063E1,-7.101099472E-3,-1.382041909E-2,-1.130067464E-2
2.407508005E1,-1.137703005E-2,-1.840177365E-2,-4.581354558E-3
2.409388943E1,-1.198787708E-2,-1.748550311E-2,-3.054236295E-4
2.411269880E1,-7.406522986E-3,-1.229330152E-2,-2.443389036E-3
2.413150818E1,-5.879404955E-3,-1.015533600E-2,-6.719320081E-3
2.415031760E1,-8.017370477E-3,-1.351499557E-2,-4.886778072E-3
2.416912698E1,-9.849912487E-3,-1.229330152E-2,-3.054236295E-3
2.418793636E1,-9.849912487E-3,-7.711946499E-3,-2.137965523E-3
2.420674573E1,-7.101099472E-3,-3.741439432E-3,-1.527118147E-3
2.422555510E1,-3.130592173E-3,-5.268557463E-3,-2.443389036E-3
2.424436453E1,-6.872031372E-4,-9.239064530E-3,-3.054236295E-3
2.426317391E1,3.894151188E-3,-1.137703005E-2,-3.665083554E-3
2.428198328E1,7.253811229E-3,-1.168245357E-2,-3.359660041E-3
2.430079266E1,5.726693198E-3,-1.320957206E-2,-2.748812549E-3
2.431960203E1,2.061609412E-3,-1.412584260E-2,-1.527118147E-3
2.433841141E1,-6.872031372E-4,-9.239064530E-3,1.527118147E-3
2.435722083E1,-6.184828468E-3,-4.657710437E-3,3.054236295E-3
2.437603021E1,-1.290414855E-2,1.145338640E-3,3.359660041E-3
2.439483958E1,-2.023431472E-2,5.726693198E-3,2.443389036E-3
2.441364896E1,-1.870719716E-2,6.032116711E-3,9.162708884E-4
2.443245833E1,-1.015533600E-2,5.344913807E-4,-2.443389036E-3
2.445126776E1,-3.817795368E-4,-8.017370477E-3,-8.857285604E-3
2.447007714E1,6.642963737E-3,-1.412584260E-2,-1.404948719E-2
2.448888651E1,1.122431830E-2,-2.023431472E-2,-1.771457121E-2
2.450769589E1,8.780929260E-3,-2.328855172E-2,-2.046338283E-2
2.452650526E1,4.810422193E-3,-1.870719716E-2,-2.076880634E-2
2.454531469E1,8.399150101E-4,-1.198787708E-2,-1.588202827E-2
2.456412406E1,-2.519744914E-3,-9.849912487E-3,-9.162709117E-3
2.458293344E1,-8.628217503E-3,-2.214321401E-3,-9.162709117E-3
2.460174281E1,-1.259872504E-2,5.421269219E-3,-8.551862091E-3
2.462055219E1,-1.320957206E-2,7.559234742E-3,-6.719320081E-3
2.463936156E1,-1.137703005E-2,3.588727675E-3,-5.803049076E-3
2.465817099E1,-6.490251981E-3,4.199574701E-3,-5.497625098E-3
2.467698037E1,-7.635590737E-5,4.199574701E-3,-2.443389036E-3
2.469578974E1,-7.635590737E-5,-2.519744914E-3,-1.832541777E-3
2.471459912E1,-3.741439432E-3,-1.908897655E-3,-7.024743594E-3
2.473340849E1,-9.926267667E-4,1.756185899E-3,-7.635590620E-3
2.475221792E1,1.145338640E-3,-1.298050396E-3,3.054236295E-4
2.477102729E1,-2.214321401E-3,-6.490251981E-3,8.857285604E-3
2.478983667E1,-3.741439432E-3,-5.268557463E-3,1.252236869E-2
2.480864604E1,-4.352286924E-3,8.475505747E-3,1.343864016E-2
2.482745542E1,-6.184828468E-3,1.427855436E-2,1.679829881E-2
2.484626484E1,-7.711946499E-3,1.030804776E-2,2.565558441E-2
2.486507422E1,-9.239064530E-3,9.086352773E-3,2.840439789E-2
2.488388359E1,-1.259872504E-2,1.122431830E-2,2.351761982E-2
2.490269297E1,-1.443126611E-2,1.427855436E-2,1.832541823E-2
2.492150234E1,-1.320957206E-2,8.475505747E-3,1.343864016E-2
2.494031177E1,-1.076618303E-2,4.504998680E-3,8.551862091E-3
2.495912115E1,-7.101099472E-3,7.864658721E-3,2.137965523E-3
2.497793052E1,-2.214321401E-3,3.894151188E-3,-3.359660041E-3
2.499673990E1,4.504998680E-3,-6.490251981E-3,-9.468132630E-3
2.501554927E1,1.214058883E-2,-1.626380906E-2,-1.374406368E-2
2.503435865E1,1.794363745E-2,-1.656923257E-2,-1.618745178E-2
2.505316807E1,1.916533336E-2,-1.534753758E-2,-1.618745178E-2
2.507197745E1,1.702736691E-2,-1.779092662E-2,-1.374406368E-2
2.509078682E1,1.183516532E-2,-1.382041909E-2,-1.191152167E-2
2.510959620E1,7.559234742E-3,-8.322793990E-3,-7.635590620E-3
2.512840557E1,5.115845706E-3,-4.963133950E-3,-1.221694518E-3
2.514721500E1,1.450762269E-3,-1.908897655E-3,5.497625098E-3
2.516602438E1,-4.352286924E-3,3.283303929E-3,1.099525020E-2
2.518483375E1,-1.107160654E-2,1.000262424E-2,1.313321572E-2
2.520364313E1,-1.382041909E-2,1.336228382E-2,1.527118124E-2
2.522245250E1,-1.168245357E-2,1.183516532E-2,1.618745178E-2
2.524126188E1,-8.017370477E-3,7.559234742E-3,1.496575773E-2
2.526007130E1,-6.490251981E-3,9.086352773E-3,1.007897966E-2
2.527888068E1,-5.268557463E-3,1.152974181E-2,5.192201585E-3
2.529769005E1,-1.603474026E-3,8.170082234E-3,3.054236295E-3
2.531649943E1,3.283303929E-3,1.145338640E-3,6.108472589E-4
2.533530880E1,6.337540224E-3,-9.926267667E-4,-3.054236295E-3
2.535411818E1,7.559234742E-3,1.450762269E-3,-3.054236295E-3
2.537292760E1,4.810422193E-3,1.145338640E-3,-3.665083554E-3
2.539173698E1,-7.635590737E-5,-3.817795368E-4,-7.941014133E-3
2.541054636E1,-9.926267667E-4,2.672456671E-3,-1.191152167E-2
2.542935573E1,8.399150101E-4,2.290677221E-4,-1.099525020E-2
2.544816510E1,-6.872031372E-4,-2.519744914E-3,-6.108472589E-3
2.546697453E1,-3.817795368E-4,-8.017370477E-3,-5.497625098E-3
2.548578391E1,2.672456671E-3,-6.872031372E-4,-5.192201585E-3
2.550459328E1,2.977880416E-3,7.253811229E-3,-2.137965523E-3
2.552340266E1,2.367033157E-3,4.199574701E-3,4.886778072E-3
2.554221203E1,5.344913807E-4,2.367033157E-3,9.773556143E-3
2.556102146E1,-1.298050396E-3,6.642963737E-3,9.773556143E-3
2.557983083E1,-4.657710437E-3,1.122431830E-2,1.099525020E-2
2.559864021E1,-7.711946499E-3,1.091889478E-2,1.252236869E-2
2.561744958E1,-6.795675959E-3,7.559234742E-3,1.496575773E-2
2.563625896E1,-2.214321401E-3,8.780929260E-3,1.618745178E-2
2.565506839E1,-1.603474026E-3,1.030804776E-2,1.618745178E-2
2.567387776E1,-5.879404955E-3,1.336228382E-2,1.404948719E-2
2.569268714E1,-6.490251981E-3,8.170082234E-3,8.857285604E-3
2.571149651E1,-3.130592173E-3,3.894151188E-3,3.054236295E-3
2.573030589E1,-9.926267667E-4,2.977880416E-3,-3.054236295E-3
2.574911531E1,-6.872031372E-4,2.367033157E-3,-4.886778072E-3
2.576792469E1,-1.908897655E-3,2.672456671E-3,-7.024743594E-3
2.578673406E1,-2.214321401E-3,4.199574701E-3,-8.857285604E-3
2.580554344E1,-3.817795368E-4,1.450762269E-3,-1.007897966E-2
2.582435281E1,5.344913807E-4,1.145338640E-3,-1.130067464E-2
2.584316219E1,5.344913807E-4,1.450762269E-3,-1.130067464E-2
2.586197162E1,-9.926267667E-4,3.588727675E-3,-1.130067464E-2
2.588078099E1,-6.184828468E-3,6.337540224E-3,-1.099525020E-2
2.589959036E1,-9.239064530E-3,8.170082234E-3,-9.162709117E-3
2.591839974E1,-7.406522986E-3,4.504998680E-3,-3.665083554E-3
2.593720917E1,-3.436015919E-3,-7.635590737E-5,-3.054236295E-4
2.595601854E1,-9.926267667E-4,2.290677221E-4,9.162708884E-4
2.597482792E1,1.450762269E-3,1.756185899E-3,-9.162708884E-4
2.599363729E1,1.450762269E-3,2.367033157E-3,-3.665083554E-3
2.601244667E1,8.399150101E-4,1.450762269E-3,-6.413896102E-3
2.603125604E1,1.450762269E-3,2.977880416E-3,-7.024743594E-3
2.605006547E1,1.756185899E-3,2.367033157E-3,-6.108472589E-3
2.606887484E1,-1.908897655E-3,8.399150101E-4,-7.330167107E-3
2.608768422E1,-3.436015919E-3,3.588727675E-3,-7.024743594E-3
2.610649359E1,-3.817795368E-4,1.145338640E-3,-6.108472589E-3
2.612530297E1,2.290677221E-4,-3.741439432E-3,-4.275931045E-3
2.614411240E1,8.399150101E-4,-6.184828468E-3,-4.886778072E-3
2.616292177E1,8.170082234E-3,-7.711946499E-3,-6.413896102E-3
2.618173115E1,1.702736691E-2,-7.711946499E-3,-6.108472589E-3
2.620054052E1,2.069245093E-2,-1.687465608E-2,-2.748812549E-3
2.621934990E1,1.458397787E-2,-1.962346770E-2,9.162708884E-4
2.623815932E1,4.504998680E-3,-1.259872504E-2,3.359660041E-3
2.625696870E1,-1.298050396E-3,-6.795675959E-3,5.192201585E-3
2.627577807E1,-4.352286924E-3,-1.603474026E-3,4.275931045E-3
2.629458745E1,-6.795675959E-3,1.450762269E-3,3.970507067E-3
2.631339682E1,-9.849912487E-3,4.810422193E-3,-1.527118147E-3
2.633220625E1,-9.849912487E-3,7.253811229E-3,-7.941014133E-3
2.635101563E1,-3.741439432E-3,5.726693198E-3,-1.313321572E-2
2.636982500E1,4.810422193E-3,-9.926267667E-4,-1.740914769E-2
2.638863438E1,1.458397787E-2,-6.490251981E-3,-2.015795931E-2
2.640744375E1,1.855448633E-2,-7.711946499E-3,-2.229592577E-2
2.642625318E1,1.672194339E-2,-8.322793990E-3,-2.137965336E-2
2.644506255E1,1.152974181E-2,-8.628217503E-3,-1.740914769E-2
2.646387193E1,7.559234742E-3,-7.711946499E-3,-1.130067464E-2
2.648268130E1,6.032116711E-3,-1.298050396E-3,-7.330167107E-3
2.650149073E1,5.115845706E-3,6.337540224E-3,-5.192201585E-3
2.652030010E1,3.283303929E-3,6.948387716E-3,-4.275931045E-3
2.653910948E1,5.115845706E-3,4.810422193E-3,-0.000000000E0
2.655791886E1,8.170082234E-3,5.115845706E-3,2.137965523E-3
2.657672823E1,8.780929260E-3,7.253811229E-3,3.359660041E-3
2.659553766E1,8.170082234E-3,4.199574701E-3,8.551862091E-3
2.661434703E1,6.337540224E-3,3.894151188E-3,1.374406368E-2
2.663315641E1,5.421269219E-3,6.948387716E-3,1.588202827E-2
2.665196578E1,5.726693198E-3,1.305686031E-2,1.588202827E-2
2.667077516E1,7.253811229E-3,1.336228382E-2,1.649287529E-2
2.668958458E1,5.726693198E-3,1.214058883E-2,1.588202827E-2
2.670839396E1,5.115845706E-3,1.275143679E-2,1.313321572E-2
2.672720333E1,7.253811229E-3,1.550024934E-2,1.007897966E-2
2.674601271E1,8.780929260E-3,1.458397787E-2,9.468132630E-3
2.676482208E1,3.588727675E-3,8.780929260E-3,4.886778072E-3
2.678363151E1,-4.657710437E-3,1.366770733E-2,-2.137965523E-3
2.680244089E1,-2.519744914E-3,1.550024934E-2,-2.748812549E-3
2.682125026E1,-7.635590737E-5,8.170082234E-3,1.527118147E-3
2.684005964E1,5.344913807E-4,8.399150101E-4,4.581354558E-3
2.685886901E1,5.726693198E-3,1.145338640E-3,6.108472589E-3
2.687767844E1,5.421269219E-3,1.458397787E-2,7.635590620E-3
2.689648781E1,5.344913807E-4,1.336228382E-2,1.282779220E-2
2.691529719E1,-7.711946499E-3,1.061347127E-2,1.740914769E-2
2.693410656E1,-1.687465608E-2,1.122431830E-2,1.343864016E-2
2.695291599E1,-2.084516361E-2,1.214058883E-2,4.275931045E-3
2.697172536E1,-1.595838554E-2,8.475505747E-3,-1.832541777E-3
2.699053474E1,-8.017370477E-3,2.061609412E-3,-8.246437646E-3
2.700934412E1,-1.298050396E-3,-9.926267667E-4,-1.252236869E-2
2.702815349E1,4.810422193E-3,-1.908897655E-3,-1.252236869E-2
2.704696292E1,7.559234742E-3,-4.352286924E-3,-5.497625098E-3
2.706577229E1,6.337540224E-3,-9.849912487E-3,3.054236295E-3
2.708458167E1,5.726693198E-3,-1.473669056E-2,1.007897966E-2
2.710339104E1,2.672456671E-3,-1.015533600E-2,1.313321572E-2
2.712220042E1,-4.963133950E-3,-2.825168660E-3,1.099525020E-2
2.714100984E1,-1.229330152E-2,5.344913807E-4,6.108472589E-3
2.715981922E1,-1.382041909E-2,2.290677221E-4,1.832541777E-3
2.717862859E1,-9.849912487E-3,-3.130592173E-3,-2.443389036E-3
2.719743797E1,-4.046862945E-3,-6.795675959E-3,-6.108472589E-3
2.721624740E1,-6.872031372E-4,-1.107160654E-2,-7.635590620E-3
2.723505677E1,2.367033157E-3,-1.473669056E-2,-5.803049076E-3
2.725386615E1,4.504998680E-3,-1.595838554E-2,-3.970507067E-3
2.727267552E1,4.810422193E-3,-1.565296017E-2,-2.443389036E-3
2.729148490E1,3.588727675E-3,-1.229330152E-2,-6.108472589E-4
2.731029432E1,8.399150101E-4,-8.933641016E-3,6.108472589E-4
2.732910370E1,-2.825168660E-3,-4.046862945E-3,3.054236295E-3
2.734791307E1,-6.184828468E-3,1.450762269E-3,3.359660041E-3
2.736672245E1,-7.406522986E-3,1.756185899E-3,1.221694518E-3
2.738553182E1,-4.352286924E-3,2.672456671E-3,-3.054236295E-4
2.740434125E1,1.145338640E-3,3.894151188E-3,-0.000000000E0
2.742315063E1,3.894151188E-3,2.367033157E-3,-1.832541777E-3
2.744196000E1,5.421269219E-3,2.367033157E-3,-3.970507067E-3
2.746076938E1,8.475505747E-3,5.421269219E-3,-3.359660041E-3
2.747957880E1,1.122431830E-2,3.588727675E-3,-9.162708884E-4
2.749838818E1,7.253811229E-3,1.145338640E-3,-9.162708884E-4
2.751719755E1,3.283303929E-3,7.864658721E-3,-1.221694518E-3
2.753600693E1,5.421269219E-3,1.275143679E-2,2.748812549E-3
2.755481630E1,3.588727675E-3,9.391776286E-3,8.857285604E-3
2.757362573E1,2.290677221E-4,1.000262424E-2,1.374406368E-2
2.759243511E1,5.344913807E-4,1.397313084E-2,1.404948719E-2
2.761124448E1,-9.926267667E-4,2.405211143E-2,1.221694518E-2
2.763005386E1,-4.046862945E-3,2.466295846E-2,1.068982668E-2
2.764886323E1,-4.657710437E-3,1.947075687E-2,1.404948719E-2
2.766767266E1,-3.130592173E-3,1.947075687E-2,1.313321572E-2
2.768648203E1,-9.926267667E-4,1.947075687E-2,8.857285604E-3
2.770529141E1,2.290677221E-4,2.008160390E-2,5.497625098E-3
2.772410078E1,5.344913807E-4,1.824906096E-2,3.054236295E-3
2.774291021E1,2.977880416E-3,1.305686031E-2,1.527118147E-3
2.776171958E1,6.337540224E-3,1.122431830E-2,-2.137965523E-3
2.778052896E1,6.337540224E-3,9.697199799E-3,-5.192201585E-3
2.779933833E1,3.588727675E-3,7.253811229E-3,-7.024743594E-3
2.781814771E1,3.894151188E-3,2.367033157E-3,-7.635590620E-3
2.783695714E1,8.170082234E-3,1.145338640E-3,-7.330167107E-3
2.785576651E1,1.183516532E-2,-3.817795368E-4,-9.162709117E-3
2.787457589E1,1.305686031E-2,-1.298050396E-3,-7.941014133E-3
2.789338526E1,1.152974181E-2,-9.926267667E-4,-5.192201585E-3
2.791219464E1,9.086352773E-3,1.450762269E-3,-2.137965523E-3
2.793100406E1,5.421269219E-3,4.199574701E-3,9.162708884E-4
2.794981344E1,2.672456671E-3,7.253811229E-3,3.970507067E-3
2.796862281E1,-6.872031372E-4,8.475505747E-3,7.024743594E-3
2.798743219E1,-6.184828468E-3,9.697199799E-3,9.162709117E-3
2.800624162E1,-9.849912487E-3,1.214058883E-2,9.468132630E-3
2.802505099E1,-1.137703005E-2,1.427855436E-2,1.068982668E-2
2.804386036E1,-8.017370477E-3,1.397313084E-2,1.007897966E-2
2.806266974E1,-3.436015919E-3,1.061347127E-2,8.246437646E-3
2.808147912E1,1.145338640E-3,6.032116711E-3,3.970507067E-3
2.810028854E1,4.504998680E-3,5.421269219E-3,-0.000000000E0
2.811909792E1,7.864658721E-3,2.672456671E-3,-1.832541777E-3
2.813790729E1,9.391776286E-3,-1.603474026E-3,-3.054236295E-3
2.815671667E1,8.170082234E-3,-3.741439432E-3,-5.192201585E-3
2.817552604E1,5.115845706E-3,-3.817795368E-4,-8.246437646E-3
2.819433547E1,4.810422193E-3,2.061609412E-3,-9.468132630E-3
2.821314484E1,6.948387716E-3,3.588727675E-3,-8.857285604E-3
2.823195422E1,6.032116711E-3,-6.872031372E-4,-6.719320081E-3
2.825076359E1,5.115845706E-3,1.145338640E-3,-3.665083554E-3
2.826957297E1,8.780929260E-3,2.367033157E-3,3.359660041E-3
2.828838240E1,5.421269219E-3,-4.352286924E-3,4.581354558E-3
2.830719177E1,-6.490251981E-3,-1.298050396E-3,6.108472589E-4
2.832600115E1,-1.137703005E-2,5.115845706E-3,-1.221694518E-3
2.834481052E1,-9.239064530E-3,2.367033157E-3,2.443389036E-3
2.836361990E1,-9.849912487E-3,-2.825168660E-3,7.024743594E-3
2.838242932E1,-6.795675959E-3,-1.168245357E-2,4.581354558E-3
2.840123870E1,-5.573981442E-3,8.399150101E-4,3.054236295E-4
2.842004807E1,-4.046862945E-3,3.283303929E-3,-1.221694518E-3
2.843885745E1,1.450762269E-3,-8.628217503E-3,-6.108472589E-4
2.845766688E1,6.337540224E-3,-1.290414855E-2,-1.527118147E-3
2.847647625E1,1.122431830E-2,-1.015533600E-2,-2.137965523E-3
2.849528563E1,1.000262424E-2,-1.107160654E-2,3.054236295E-4
2.851409500E1,3.894151188E-3,-9.544488043E-3,2.443389036E-3
2.853290438E1,-1.908897655E-3,-6.490251981E-3,1.832541777E-3
2.855171380E1,-6.490251981E-3,-9.926267667E-4,6.108472589E-4
2.857052318E1,-8.322793990E-3,1.145338640E-3,3.054236295E-4
2.858933255E1,-8.933641016E-3,2.290677221E-4,-9.162708884E-4
2.860814193E1,-5.268557463E-3,-4.046862945E-3,-2.443389036E-3
2.862695130E1,3.283303929E-3,-2.825168660E-3,-3.359660041E-3
2.864576073E1,9.391776286E-3,-4.046862945E-3,-1.221694518E-3
2.866457011E1,8.475505747E-3,-7.406522986E-3,1.832541777E-3
2.868337948E1,3.283303929E-3,-2.214321401E-3,4.275931045E-3
2.870218886E1,-1.298050396E-3,4.810422193E-3,6.413896102E-3
2.872099823E1,-1.603474026E-3,4.810422193E-3,9.162709117E-3
2.873980766E1,-2.519744914E-3,5.421269219E-3,1.191152167E-2
2.875861703E1,-5.268557463E-3,1.275143679E-2,1.221694518E-2
2.877742641E1,-5.268557463E-3,1.550024934E-2,1.130067464E-2
2.879623578E1,1.756185899E-3,1.275143679E-2,1.068982668E-2
2.881504521E1,1.030804776E-2,9.697199799E-3,1.160609815E-2
2.883385458E1,1.519482583E-2,6.642963737E-3,1.527118124E-2
2.885266396E1,1.550024934E-2,5.421269219E-3,2.076880634E-2
2.887147333E1,9.697199799E-3,4.504998680E-3,2.687728032E-2
2.889028271E1,-6.872031372E-4,6.337540224E-3,2.993151546E-2
2.890909214E1,-1.320957206E-2,1.580567285E-2,2.901524492E-2
2.892790151E1,-2.634278871E-2,2.710634656E-2,2.626643144E-2
2.894671089E1,-3.397838026E-2,3.168770298E-2,1.710372418E-2
2.896552026E1,-3.092414327E-2,2.527380548E-2,7.941014133E-3
2.898432964E1,-1.443126611E-2,1.641651988E-2,6.108472589E-4
2.900313906E1,6.032116711E-3,-3.817795368E-4,-5.803049076E-3
2.902194844E1,2.130329795E-2,-2.206685767E-2,-1.466033421E-2
2.904075781E1,2.527380548E-2,-2.328855172E-2,-2.137965336E-2
2.905956719E1,2.221956849E-2,-2.176143415E-2,-2.321219631E-2
2.907837656E1,1.550024934E-2,-2.542651631E-2,-1.924168877E-2
2.909718599E1,8.475505747E-3,-3.031329438E-2,-1.282779220E-2
2.911599537E1,5.115845706E-3,-2.848075330E-2,-4.581354558E-3
2.913480474E1,5.344913807E-4,-1.443126611E-2,2.137965523E-3
2.915361412E1,-5.879404955E-3,-7.635590737E-5,5.497625098E-3
2.917242349E1,-1.137703005E-2,2.977880416E-3,7.330167107E-3
2.919123292E1,-1.412584260E-2,4.199574701E-3,6.413896102E-3
2.921004229E1,-1.015533600E-2,5.421269219E-3,6.413896102E-3
2.922885167E1,-3.130592173E-3,-7.635590737E-5,9.162709117E-3
2.924766104E1,-2.214321401E-3,-3.130592173E-3,6.413896102E-3
2.926647042E1,-6.184828468E-3,6.642963737E-3,2.443389036E-3
2.928527984E1,-2.084516361E-2,1.397313084E-2,1.527118147E-3
2.930408922E1,-4.833329096E-2,3.749075159E-2,-8.551862091E-3
2.932289859E1,-6.329904497E-2,5.734328553E-2,-1.068982668E-2
2.934170797E1,-5.871769413E-2,4.665346071E-2,-1.282779220E-2
2.936051734E1,-2.939702384E-2,2.588465251E-2,-1.068982668E-2
2.937932677E1,9.391776286E-3,5.115845706E-3,-6.108472589E-4
2.939813615E1,1.763821393E-2,-8.322793990E-3,-9.162709117E-3
2.941694552E1,3.283303929E-3,9.086352773E-3,-2.626643144E-2
2.943575490E1,-1.015533600E-2,2.863346599E-2,-3.481829539E-2
2.945456427E1,-1.504211407E-2,1.427855436E-2,-4.123219103E-2
2.947337370E1,-1.198787708E-2,-1.076618303E-2,-4.092676565E-2
2.949218307E1,-9.849912487E-3,-1.015533600E-2,-3.787253052E-2
2.951099245E1,-1.351499557E-2,-1.603474026E-3,-3.939964995E-2
2.952980182E1,-2.023431472E-2,2.977880416E-3,-3.573456407E-2
2.954861120E1,-2.053973824E-2,1.000262424E-2,-2.840439789E-2
2.956742063E1,-1.840177365E-2,1.152974181E-2,-1.313321572E-2
2.958623000E1,-1.931804419E-2,1.244601328E-2,-6.108472589E-4
2.960503938E1,-2.573194169E-2,1.855448633E-2,3.665083554E-3
2.962384875E1,-2.939702384E-2,2.619007602E-2,4.275931045E-3
2.964265813E1,-2.695363574E-2,3.199312463E-2,6.719320081E-3
2.966146755E1,-2.909160033E-2,3.474193811E-2,8.551862091E-3
2.968027693E1,-3.184041381E-2,3.138227761E-2,1.313321572E-2
2.969908630E1,-2.878617682E-2,4.573718831E-2,1.985253580E-2
2.971789568E1,-1.840177365E-2,5.612159148E-2,3.695625812E-2
2.973670505E1,-8.933641016E-3,4.879142344E-2,3.817795217E-2
2.975551448E1,-3.436015919E-3,6.009209901E-2,2.290677279E-2
2.977432386E1,-6.490251981E-3,5.703786388E-2,1.282779220E-2
2.979313323E1,-9.849912487E-3,1.916533336E-2,1.160609815E-2
2.981194261E1,-1.870719716E-2,1.091889478E-2,1.007897966E-2
2.983075198E1,-2.939702384E-2,2.221956849E-2,2.748812549E-3
2.984956141E1,-2.970244735E-2,1.977618039E-2,-3.054236295E-3
2.986837078E1,-1.565296017E-2,-6.872031372E-4,-1.252236869E-2
2.988718016E1,1.450762269E-3,-1.412584260E-2,-2.107422985E-2
2.990598953E1,1.214058883E-2,-2.878617682E-2,-2.779355086E-2
2.992479891E1,1.916533336E-2,-4.711159319E-2,-4.092676565E-2
2.994360833E1,2.649549954E-2,-5.169294775E-2,-5.344913527E-2
2.996241771E1,2.802261710E-2,-5.688514933E-2,-6.200099736E-2
2.998122708E1,2.924431302E-2,-4.924955964E-2,-7.391251624E-2
3.000003646E1,4.451549426E-2,-3.153498843E-2,-6.047387794E-2
3.001884583E1,5.825955793E-2,-2.359397523E-2,-3.634541109E-2
3.003765526E1,4.756972939E-2,-1.137703005E-2,-1.740914769E-2
3.005646464E1,2.435753495E-2,-8.628217503E-3,-3.970507067E-3
3.007527401E1,8.780929260E-3,-1.198787708E-2,6.719320081E-3
3.009408339E1,2.367033157E-3,-1.962346770E-2,1.527118124E-2
3.011289276E1,-6.490251981E-3,-2.328855172E-2,2.107422985E-2
3.013170214E1,-2.298312820E-2,-2.848075330E-2,2.168507688E-2
3.015051156E1,-4.283566400E-2,-1.443126611E-2,1.252236869E-2
3.016932094E1,-5.719057471E-2,-1.198787708E-2,-7.330167107E-3
3.018813031E1,-5.444176123E-2,-3.367295489E-2,-3.237490356E-2
3.020693969E1,-4.008685052E-2,-4.497363046E-2,-4.764608666E-2
3.022574912E1,-3.122956678E-2,-4.039227590E-2,-5.558710173E-2
3.024455849E1,-2.481566928E-2,-4.558447748E-2,-6.200099736E-2
3.026336787E1,-1.443126611E-2,-5.993938819E-2,-6.322269142E-2
3.028217724E1,2.672456671E-3,-6.879667193E-2,-5.528167635E-2
3.030098662E1,1.672194339E-2,-6.910209358E-2,-4.520269856E-2
3.031979599E1,2.099787444E-2,-6.879667193E-2,-3.329117596E-2
3.033860542E1,1.794363745E-2,-4.986040667E-2,-2.657185495E-2
3.035741479E1,6.337540224E-3,-4.008685052E-2,-1.710372418E-2
3.037622417E1,-1.198787708E-2,-2.359397523E-2,-1.221694518E-2
3.039503354E1,-2.634278871E-2,-2.825168660E-3,-1.007897966E-2
3.041384292E1,-2.848075330E-2,2.290677221E-4,-6.108472589E-3
3.043265234E1,-1.595838554E-2,-5.879404955E-3,-6.108472589E-4
3.045146172E1,-8.322793990E-3,-4.352286924E-3,3.359660041E-3
3.047027109E1,-1.290414855E-2,-7.635590737E-5,2.748812549E-3
3.048908047E1,-1.748550311E-2,7.864658721E-3,4.886778072E-3
3.050788984E1,-1.382041909E-2,1.152974181E-2,1.007897966E-2
3.052669922E1,-6.184828468E-3,7.864658721E-3,1.649287529E-2
3.054550865E1,2.061609412E-3,6.032116711E-3,1.588202827E-2
3.056431802E1,2.290677221E-4,2.588465251E-2,1.221694518E-2
3.058312740E1,-6.795675959E-3,3.535278514E-2,1.007897966E-2
3.060193677E1,-6.490251981E-3,2.588465251E-2,1.282779220E-2
3.062074615E1,-2.519744914E-3,2.924431302E-2,1.740914769E-2
3.063955557E1,1.450762269E-3,3.810159862E-2,1.985253580E-2
3.065836495E1,3.588727675E-3,4.359922186E-2,2.351761982E-2
3.067717432E1,6.032116711E-3,4.787515476E-2,2.565558441E-2
3.069598370E1,4.504998680E-3,5.001311749E-2,2.596100792E-2
3.071479307E1,8.170082234E-3,5.245650932E-2,2.901524492E-2
3.073360245E1,1.091889478E-2,5.825955793E-2,2.962609194E-2
3.075241188E1,1.152974181E-2,6.558972597E-2,3.237490356E-2
3.077122125E1,9.086352773E-3,6.803311408E-2,3.909422457E-2
3.079003063E1,1.030804776E-2,6.956022978E-2,4.337015375E-2
3.080884000E1,1.366770733E-2,7.078192383E-2,4.734066129E-2
3.082764938E1,1.641651988E-2,7.108735293E-2,4.734066129E-2
3.084645880E1,1.855448633E-2,7.017108053E-2,5.008947477E-2
3.086526818E1,2.252499200E-2,6.314633787E-2,6.077930331E-2
3.088407755E1,2.374668792E-2,7.200361788E-2,5.558710173E-2
3.090288693E1,2.069245093E-2,6.803311408E-2,5.955760926E-2
3.092169630E1,1.977618039E-2,6.956022978E-2,5.222744122E-2
3.094050573E1,2.130329795E-2,7.536327839E-2,5.405998230E-2
3.095931510E1,2.160872146E-2,7.750124484E-2,5.680879578E-2
3.097812448E1,2.863346599E-2,7.169819623E-2,6.963659078E-2
3.099693386E1,2.741177008E-2,7.811209559E-2,6.841489673E-2
3.101574323E1,1.916533336E-2,7.475243509E-2,6.597150117E-2
3.103455266E1,1.947075687E-2,6.497887522E-2,6.536065787E-2
3.105336203E1,2.557922900E-2,6.436803192E-2,5.925218388E-2
3.107217141E1,2.893888950E-2,5.948125198E-2,6.963659078E-2
3.109098078E1,3.107685409E-2,5.642701685E-2,6.719319522E-2
3.110979016E1,3.504735976E-2,5.887040496E-2,6.627693027E-2
3.112859953E1,3.290939704E-2,6.894938648E-2,6.413896382E-2
3.114740896E1,3.290939704E-2,6.253548712E-2,6.749862432E-2
3.116621833E1,3.718532622E-2,3.962871432E-2,8.093725890E-2
3.118502771E1,4.146125913E-2,4.237752780E-2,9.040539712E-2
3.120383708E1,4.237752780E-2,7.414158434E-2,8.735115826E-2
3.122264646E1,3.962871432E-2,9.979717433E-2,8.246438205E-2
3.124145589E1,3.077143058E-2,1.022405624E-1,8.490777016E-2
3.126026526E1,3.016058356E-2,9.032903612E-2,8.979454637E-2
3.127907464E1,4.573718831E-2,8.544225991E-2,8.704573661E-2
3.129788401E1,5.978667364E-2,7.872293890E-2,8.124268800E-2
3.131669339E1,6.711684167E-2,8.208259940E-2,8.215895295E-2
3.133550276E1,6.986565888E-2,7.780666649E-2,6.963659078E-2
3.135431219E1,6.467345357E-2,6.528430432E-2,5.375456065E-2
3.137312156E1,6.284090877E-2,4.940227047E-2,4.856235534E-2
3.139193094E1,6.223006546E-2,4.085041210E-2,4.886778072E-2
3.141074031E1,5.825955793E-2,4.023956135E-2,5.131116882E-2
3.142954969E1,4.543176666E-2,4.359922186E-2,4.092676565E-2
3.144835906E1,3.290939704E-2,4.359922186E-2,3.512371704E-2
3.146716849E1,2.893888950E-2,3.626905754E-2,4.550812021E-2
3.148597787E1,3.016058356E-2,3.871244565E-2,3.512371704E-2
3.150478724E1,2.374668792E-2,3.840702027E-2,2.932066843E-2
3.152359662E1,1.916533336E-2,2.802261710E-2,4.123219103E-2
3.154240599E1,1.733279042E-2,4.085041210E-2,4.092676565E-2
3.156121537E1,1.030804776E-2,5.306735635E-2,3.084778599E-2
3.158002479E1,1.305686031E-2,4.298837483E-2,2.565558441E-2
3.159883417E1,1.916533336E-2,2.527380548E-2,3.390202299E-2
3.161764354E1,2.405211143E-2,2.099787444E-2,4.764608666E-2
3.163645292E1,2.954973653E-2,3.657447919E-2,5.619794875E-2
3.165526229E1,3.504735976E-2,4.512634128E-2,5.222744122E-2
3.167407167E1,3.718532622E-2,2.680092305E-2,2.473931387E-2
3.169288104E1,3.626905754E-2,2.977880416E-3,-3.665083554E-3
3.171169047E1,3.840702027E-2,-1.320957206E-2,-1.710372418E-2
3.173049984E1,3.962871432E-2,-1.931804419E-2,-1.985253580E-2
3.174930922E1,3.626905754E-2,-1.656923257E-2,-2.137965336E-2
3.176811859E1,2.832804248E-2,-1.259872504E-2,-1.496575773E-2
3.178692797E1,1.824906096E-2,-7.635590737E-5,-3.970507067E-3
3.180573740E1,1.091889478E-2,1.030804776E-2,1.099525020E-2
3.182454677E1,-6.872031372E-4,3.138227761E-2,9.162709117E-3
3.184335615E1,-1.229330152E-2,2.252499200E-2,3.054236295E-3
3.186216552E1,-1.412584260E-2,1.885990985E-2,1.221694518E-3
3.188097490E1,-1.168245357E-2,1.855448633E-2,1.221694518E-3
3.189978427E1,-8.017370477E-3,1.611109637E-2,2.443389036E-3
3.191859370E1,-1.908897655E-3,8.170082234E-3,-2.137965523E-3
3.193740307E1,-3.130592173E-3,3.894151188E-3,-1.160609815E-2
3.195621245E1,-9.544488043E-3,-4.352286924E-3,-1.649287529E-2
3.197502182E1,-1.412584260E-2,-1.046075951E-2,-2.107422985E-2
3.199383120E1,-1.748550311E-2,-1.046075951E-2,-2.015795931E-2
3.201264063E1,-1.137703005E-2,-1.351499557E-2,-2.015795931E-2
3.203145000E1,-3.436015919E-3,-1.962346770E-2,-2.260134928E-2
3.205025938E1,5.421269219E-3,-1.626380906E-2,-2.473931387E-2
3.206906875E1,1.214058883E-2,-1.046075951E-2,-3.145863488E-2
3.208787813E1,1.122431830E-2,-6.795675959E-3,-3.603998944E-2
3.210668750E1,7.864658721E-3,-1.779092662E-2,-3.481829539E-2
3.212549688E1,5.726693198E-3,-2.237228118E-2,-3.695625812E-2
3.214430630E1,5.344913807E-4,-1.931804419E-2,-3.390202299E-2
3.216311568E1,-4.657710437E-3,-1.687465608E-2,-2.993151546E-2
3.218192505E1,-9.239064530E-3,-1.626380906E-2,-2.626643144E-2
3.220073443E1,-1.412584260E-2,-1.168245357E-2,-2.199050039E-2
3.221954380E1,-1.901262067E-2,-2.825168660E-3,-1.801999472E-2
3.223835318E1,-2.084516361E-2,-2.519744914E-3,-9.468132630E-3
3.225716255E1,-2.176143415E-2,-3.741439432E-3,-3.665083554E-3
3.227597198E1,-2.176143415E-2,-2.519744914E-3,-3.054236295E-3
3.229478136E1,-1.870719716E-2,-4.657710437E-3,-4.275931045E-3
3.231359073E1,-1.290414855E-2,-7.406522986E-3,-2.137965523E-3
3.233240011E1,-1.168245357E-2,-1.015533600E-2,-7.330167107E-3
3.235120948E1,-1.504211407E-2,-1.290414855E-2,-1.496575773E-2
3.237001886E1,-1.504211407E-2,-1.565296017E-2,-1.985253580E-2
3.238882828E1,-1.198787708E-2,-1.992889121E-2,-2.290677279E-2
3.240763766E1,-9.544488043E-3,-2.512109280E-2,-2.382304333E-2
3.242644703E1,-4.657710437E-3,-2.573194169E-2,-2.473931387E-2
3.244525641E1,-3.130592173E-3,-2.420482226E-2,-2.412846684E-2
3.246406578E1,-4.046862945E-3,-2.603736520E-2,-2.321219631E-2
3.248287516E1,-5.268557463E-3,-2.970244735E-2,-2.351761982E-2
3.250168458E1,-6.490251981E-3,-2.909160033E-2,-2.382304333E-2
3.252049396E1,-6.490251981E-3,-2.573194169E-2,-2.260134928E-2
3.253930333E1,-5.268557463E-3,-2.634278871E-2,-2.290677279E-2
3.255811271E1,-4.046862945E-3,-2.909160033E-2,-2.382304333E-2
3.257692208E1,-3.817795368E-4,-2.756448276E-2,-2.229592577E-2
3.259573146E1,4.504998680E-3,-2.237228118E-2,-2.137965336E-2
3.261454083E1,4.199574701E-3,-1.840177365E-2,-1.985253580E-2
3.263335026E1,2.061609412E-3,-1.809635013E-2,-1.832541823E-2
3.265215964E1,-1.908897655E-3,-1.595838554E-2,-1.343864016E-2
3.267096901E1,-8.017370477E-3,-9.849912487E-3,-3.970507067E-3
3.268977839E1,-8.933641016E-3,-7.711946499E-3,6.413896102E-3
3.270858776E1,-1.382041909E-2,-2.214321401E-3,1.252236869E-2
3.272739714E1,-1.565296017E-2,2.061609412E-3,1.496575773E-2
3.274620651E1,-1.901262067E-2,4.810422193E-3,2.137965336E-2
3.276501594E1,-2.237228118E-2,-1.603474026E-3,2.596100792E-2
3.278382531E1,-1.992889121E-2,5.344913807E-4,1.679829881E-2
3.280263469E1,-1.992889121E-2,8.780929260E-3,3.054236295E-3
3.282144406E1,-1.504211407E-2,8.399150101E-4,1.527118147E-3
3.284025344E1,-2.825168660E-3,-1.718007959E-2,6.108472589E-4
3.285906281E1,1.145338640E-3,-1.779092662E-2,1.221694518E-3
3.287787224E1,1.450762269E-3,-5.879404955E-3,6.108472589E-3
3.289668162E1,2.061609412E-3,2.977880416E-3,5.803049076E-3
3.291549099E1,2.290677221E-4,2.367033157E-3,-3.054236295E-4
3.293430036E1,6.032116711E-3,-8.017370477E-3,-6.108472589E-4
3.295310974E1,1.305686031E-2,-8.017370477E-3,9.162708884E-4
3.297191912E1,1.091889478E-2,2.977880416E-3,3.970507067E-3
3.299072849E1,1.756185899E-3,1.305686031E-2,6.108472589E-3
3.300953786E1,-1.412584260E-2,1.519482583E-2,7.330167107E-3
3.302834729E1,-1.809635013E-2,1.244601328E-2,1.007897966E-2
3.304715667E1,-1.565296017E-2,1.947075687E-2,1.282779220E-2
3.306596604E1,-1.351499557E-2,2.893888950E-2,5.497625098E-3
3.308477542E1,-1.137703005E-2,3.932329267E-2,1.832541777E-3
3.310358479E1,-1.137703005E-2,4.359922186E-2,3.970507067E-3
3.312239417E1,-1.351499557E-2,4.726430774E-2,2.748812549E-3
3.314120354E1,-1.779092662E-2,4.818057641E-2,3.665083554E-3
3.316001297E1,-1.656923257E-2,4.695888236E-2,8.857285604E-3
3.317882234E1,-1.290414855E-2,4.634803534E-2,1.343864016E-2
3.319763172E1,-1.015533600E-2,4.970769584E-2,1.863084175E-2
3.321644109E1,-7.711946499E-3,4.482091591E-2,2.229592577E-2
3.323525047E1,-6.795675959E-3,3.687990457E-2,2.015795931E-2
3.325405984E1,-6.795675959E-3,3.321481869E-2,2.015795931E-2
3.327286922E1,-5.268557463E-3,3.107685409E-2,2.046338283E-2
3.329167859E1,-4.046862945E-3,3.382566571E-2,2.260134928E-2
3.331048802E1,-1.298050396E-3,3.749075159E-2,2.260134928E-2
3.332929740E1,2.061609412E-3,4.115583375E-2,2.351761982E-2
3.334810677E1,6.032116711E-3,4.146125913E-2,2.473931387E-2
3.336691615E1,1.152974181E-2,3.993413970E-2,2.535016090E-2
3.338572552E1,1.458397787E-2,4.237752780E-2,2.535016090E-2
3.340453490E1,1.611109637E-2,3.840702027E-2,2.657185495E-2
3.342334432E1,1.702736691E-2,3.901786730E-2,2.229592577E-2
3.344215370E1,1.641651988E-2,4.207210615E-2,2.535016090E-2
3.346096307E1,2.069245093E-2,3.810159862E-2,3.420744836E-2
3.347977245E1,2.710634656E-2,2.954973653E-2,4.245388508E-2
3.349858182E1,2.954973653E-2,3.840702027E-2,4.275930673E-2
3.351739120E1,2.466295846E-2,5.642701685E-2,3.878879920E-2
3.353620057E1,2.374668792E-2,4.543176666E-2,4.214845970E-2
3.355500995E1,2.893888950E-2,2.893888950E-2,5.741964281E-2
3.357381932E1,3.657447919E-2,2.649549954E-2,6.352811307E-2
3.359262875E1,4.329380020E-2,3.077143058E-2,7.513421029E-2
3.361143813E1,4.604261369E-2,4.237752780E-2,7.757759839E-2
3.363024750E1,4.237752780E-2,5.459447205E-2,6.872031838E-2
3.364905688E1,3.962871432E-2,5.215108395E-2,6.658235192E-2
3.366786625E1,3.596363217E-2,3.840702027E-2,7.116370648E-2
3.368667563E1,2.985516004E-2,4.054498672E-2,5.741964281E-2
3.370548500E1,1.947075687E-2,4.604261369E-2,4.459185153E-2
3.372429438E1,1.672194339E-2,4.573718831E-2,4.092676565E-2
3.374310380E1,1.488940232E-2,4.695888236E-2,4.611896724E-2
3.376191318E1,1.641651988E-2,5.825955793E-2,5.039490014E-2
3.378072255E1,2.191414498E-2,4.329380020E-2,4.123219103E-2
3.379953193E1,2.619007602E-2,2.252499200E-2,2.565558441E-2
3.381834130E1,3.749075159E-2,-3.436015919E-3,1.099525020E-2
3.383715068E1,3.962871432E-2,-2.848075330E-2,8.857285604E-3
3.385596005E1,4.329380020E-2,-3.458922729E-2,4.886778072E-3
3.387476943E1,4.818057641E-2,-1.603474026E-3,9.162708884E-4
3.389357886E1,4.482091591E-2,3.229855001E-2,1.985253580E-2
3.391238823E1,2.405211143E-2,3.810159862E-2,3.206948191E-2
3.393119760E1,-8.933641016E-3,2.466295846E-2,2.840439789E-2
3.395000698E1,-2.573194169E-2,2.832804248E-2,3.176405653E-2
3.396881636E1,-1.870719716E-2,5.428905040E-2,3.329117596E-2
3.398762573E1,-2.214321401E-3,5.917582661E-2,4.092676565E-2
3.400643510E1,1.183516532E-2,3.077143058E-2,4.825693369E-2
3.402524448E1,1.794363745E-2,1.702736691E-2,4.825693369E-2
3.404405391E1,1.763821393E-2,1.763821393E-2,3.084778599E-2
3.406286328E1,2.099787444E-2,9.086352773E-3,1.863084175E-2
3.408167266E1,2.588465251E-2,5.726693198E-3,2.473931387E-2
3.410048203E1,2.221956849E-2,2.061609412E-3,3.329117596E-2
3.411929141E1,7.559234742E-3,6.948387716E-3,3.909422457E-2
3.413810078E1,3.588727675E-3,1.152974181E-2,4.703523964E-2
3.415691016E1,1.244601328E-2,2.649549954E-2,4.734066129E-2
3.417571953E1,1.366770733E-2,2.710634656E-2,4.459185153E-2
3.419452891E1,1.733279042E-2,1.275143679E-2,2.932066843E-2
3.421333833E1,1.305686031E-2,7.559234742E-3,7.024743594E-3
3.423214771E1,-5.268557463E-3,5.115845706E-3,3.970507067E-3
3.425095708E1,-2.825168660E-3,-7.711946499E-3,2.229592577E-2
3.426976646E1,-7.101099472E-3,-1.259872504E-2,3.756710514E-2
3.428857583E1,5.344913807E-4,-1.931804419E-2,2.687728032E-2
3.430738521E1,1.855448633E-2,2.290677221E-4,3.970507067E-3
3.432619458E1,2.496838197E-2,3.229855001E-2,4.275931045E-3
3.434500396E1,2.435753495E-2,1.458397787E-2,6.719320081E-3
3.436381339E1,1.519482583E-2,-9.239064530E-3,-4.886778072E-3
3.438262276E1,8.475505747E-3,1.794363745E-2,2.748812549E-3
3.440143214E1,1.061347127E-2,1.855448633E-2,1.466033421E-2
3.442024151E1,8.170082234E-3,1.397313084E-2,7.024743594E-3
3.443905089E1,-3.817795368E-4,1.061347127E-2,2.443389036E-3
3.445786026E1,-2.825168660E-3,4.504998680E-3,9.162708884E-4
3.447666964E1,-1.290414855E-2,-3.817795368E-4,-7.941014133E-3
3.449547901E1,-1.443126611E-2,2.038702741E-2,-2.443389036E-3
3.451428839E1,-9.926267667E-4,4.268295318E-2,1.007897966E-2
3.453309776E1,1.824906096E-2,3.077143058E-2,1.221694518E-2
3.455190719E1,1.672194339E-2,2.313583903E-2,7.330167107E-3
3.457071656E1,5.421269219E-3,4.054498672E-2,4.886778072E-3
3.458952594E1,4.199574701E-3,5.551074445E-2,1.252236869E-2
3.460833531E1,2.061609412E-3,5.062396824E-2,1.618745178E-2
3.462714469E1,3.894151188E-3,2.954973653E-2,8.551862091E-3
3.464595406E1,1.275143679E-2,1.794363745E-2,4.581354558E-3
3.466476344E1,1.336228382E-2,2.099787444E-2,1.618745178E-2
3.468357281E1,6.032116711E-3,2.619007602E-2,2.565558441E-2
3.470238219E1,-6.795675959E-3,2.985516004E-2,2.260134928E-2
3.472119162E1,-6.184828468E-3,2.771719359E-2,2.015795931E-2
3.474000099E1,7.559234742E-3,-7.406522986E-3,1.801999472E-2
3.475881036E1,2.191414498E-2,-2.451024577E-2,-5.803049076E-3
3.477761974E1,2.435753495E-2,-2.298312820E-2,-1.710372418E-2
3.479642912E1,2.252499200E-2,-3.458922729E-2,-2.076880634E-2
3.481523849E1,1.458397787E-2,-3.275668249E-2,-2.504473738E-2
3.483404786E1,8.399150101E-4,-1.137703005E-2,-1.496575773E-2
3.485285724E1,-7.406522986E-3,4.199574701E-3,-7.024743594E-3
3.487166662E1,-1.504211407E-2,6.642963737E-3,4.275931045E-3
3.489047604E1,-1.565296017E-2,1.091889478E-2,1.313321572E-2
3.490928542E1,-1.504211407E-2,3.016058356E-2,2.137965336E-2
3.492809479E1,-1.595838554E-2,4.421006888E-2,2.199050039E-2
3.494690417E1,-1.748550311E-2,4.512634128E-2,2.748812735E-2
3.496571354E1,-1.168245357E-2,2.863346599E-2,3.420744836E-2
3.498452292E1,-4.352286924E-3,1.947075687E-2,2.932066843E-2
3.500333229E1,-6.795675959E-3,2.496838197E-2,2.870982140E-2
3.502214167E1,-2.214321401E-3,1.885990985E-2,2.199050039E-2
3.504095104E1,-3.817795368E-4,8.170082234E-3,1.466033421E-2
3.505976042E1,2.977880416E-3,3.588727675E-3,1.099525020E-2
3.507856979E1,6.337540224E-3,-2.825168660E-3,7.635590620E-3
3.509737922E1,8.170082234E-3,-4.046862945E-3,1.527118147E-3
3.511618859E1,1.305686031E-2,-6.872031372E-4,-0.000000000E0
3.513499797E1,1.641651988E-2,-2.825168660E-3,-2.137965523E-3
3.515380734E1,2.221956849E-2,-1.229330152E-2,-1.221694518E-3
3.517261672E1,2.466295846E-2,-3.436015919E-3,4.275931045E-3
3.519142609E1,1.336228382E-2,8.170082234E-3,8.246437646E-3
3.521023547E1,4.199574701E-3,9.391776286E-3,4.886778072E-3
3.522904484E1,3.894151188E-3,1.214058883E-2,7.941014133E-3
3.524785422E1,-3.817795368E-4,2.099787444E-2,9.773556143E-3
3.526666359E1,-9.239064530E-3,2.741177008E-2,9.773556143E-3
3.528547297E1,-1.687465608E-2,2.160872146E-2,8.551862091E-3
3.530428240E1,-1.198787708E-2,1.366770733E-2,9.468132630E-3
3.532309177E1,-1.046075951E-2,2.252499200E-2,2.748812549E-3
3.534190115E1,-4.963133950E-3,1.794363745E-2,-1.832541777E-3
3.536071052E1,1.450762269E-3,3.588727675E-3,-2.443389036E-3
3.537951990E1,-1.908897655E-3,-6.184828468E-3,-1.221694518E-3
3.539832927E1,-3.130592173E-3,-2.237228118E-2,3.054236295E-4
3.541713865E1,5.344913807E-4,-2.023431472E-2,-1.038440317E-2
3.543594802E1,6.642963737E-3,-4.963133950E-3,-1.588202827E-2
3.545475740E1,1.397313084E-2,-1.076618303E-2,-1.435491070E-2
3.547356677E1,1.641651988E-2,-2.756448276E-2,-2.443389036E-3
3.549237615E1,5.421269219E-3,-2.115058713E-2,-3.970507067E-3
3.551118557E1,-1.076618303E-2,-8.322793990E-3,-1.832541777E-3
3.552999495E1,-7.101099472E-3,-1.603474026E-3,2.137965523E-3
3.554880432E1,4.810422193E-3,1.305686031E-2,-3.054236295E-4
3.556761370E1,2.290677221E-4,4.199574701E-3,-1.527118147E-3
3.558642307E1,1.756185899E-3,-7.101099472E-3,-1.038440317E-2
3.560523245E1,-6.872031372E-4,1.519482583E-2,-4.581354558E-3
3.562404182E1,-2.519744914E-3,2.008160390E-2,1.130067464E-2
3.564285120E1,5.344913807E-4,8.475505747E-3,3.665083554E-3
3.566166057E1,2.977880416E-3,3.283303929E-3,-3.054236295E-4
3.568046995E1,6.948387716E-3,5.344913807E-4,1.832541777E-3
3.569927932E1,1.580567285E-2,-2.825168660E-3,6.719320081E-3
3.571808875E1,1.580567285E-2,-4.046862945E-3,3.359660041E-3
3.573689813E1,1.756185899E-3,-5.268557463E-3,-2.137965523E-3
3.575570750E1,-9.544488043E-3,5.421269219E-3,-1.038440317E-2
3.577451688E1,-1.603474026E-3,7.559234742E-3,-9.773556143E-3
3.579332625E1,7.253811229E-3,5.726693198E-3,-8.246437646E-3
3.581213563E1,7.864658721E-3,6.948387716E-3,-3.054236295E-4
3.583094500E1,8.399150101E-4,-7.635590737E-5,6.108472589E-4
3.584975438E1,-6.490251981E-3,-6.872031372E-4,-1.832541777E-3
3.586856375E1,-1.908897655E-3,7.253811229E-3,1.221694518E-3
3.588737313E1,-1.603474026E-3,1.091889478E-2,3.970507067E-3
3.590618250E1,-4.046862945E-3,2.061609412E-3,8.551862091E-3
3.592499188E1,-8.628217503E-3,-1.290414855E-2,9.773556143E-3
3.594380130E1,-1.603474026E-3,-5.268557463E-3,1.160609815E-2
3.596261068E1,5.421269219E-3,2.367033157E-3,1.007897966E-2
3.598142005E1,4.810422193E-3,2.290677221E-4,9.162708884E-4
3.600022943E1,3.283303929E-3,-1.298050396E-3,-8.246437646E-3
3.601903880E1,-1.298050396E-3,1.244601328E-2,-2.443389036E-3
3.603784818E1,-9.239064530E-3,3.894151188E-3,2.137965523E-3
3.605665755E1,-1.137703005E-2,-7.635590737E-5,7.941014133E-3
3.607546693E1,-7.711946499E-3,8.399150101E-4,6.719320081E-3
3.609427630E1,2.672456671E-3,5.115845706E-3,9.468132630E-3
3.611308568E1,4.199574701E-3,6.337540224E-3,6.108472589E-3
3.613189505E1,2.367033157E-3,-2.519744914E-3,6.413896102E-3
3.615070443E1,1.122431830E-2,-1.931804419E-2,6.108472589E-3
3.616951386E1,1.794363745E-2,-1.931804419E-2,-6.108472589E-4
3.618832323E1,7.864658721E-3,-1.259872504E-2,-9.773556143E-3
3.620713261E1,-4.352286924E-3,-8.933641016E-3,-1.130067464E-2
3.622594198E1,-4.657710437E-3,-1.656923257E-2,-7.024743594E-3
3.624475136E1,-5.879404955E-3,-1.504211407E-2,-6.108472589E-4
3.626356073E1,-2.519744914E-3,-1.870719716E-2,4.886778072E-3
3.628237011E1,-4.046862945E-3,-1.076618303E-2,2.137965523E-3
3.630117948E1,-1.779092662E-2,1.000262424E-2,1.221694518E-3
3.631998886E1,-1.992889121E-2,-7.635590737E-5,2.443389036E-3
3.633879823E1,-1.259872504E-2,-1.382041909E-2,3.359660041E-3
3.635760761E1,-6.872031372E-4,-1.534753758E-2,3.054236295E-4
3.637641698E1,1.275143679E-2,-2.053973824E-2,-1.527118147E-3
3.639522641E1,1.763821393E-2,-3.000787087E-2,-1.832541777E-3
3.641403578E1,2.374668792E-2,-3.306210786E-2,6.108472589E-4
3.643284516E1,2.160872146E-2,-1.687465608E-2,-1.527118147E-3
3.645165453E1,1.366770733E-2,-3.130592173E-3,3.665083554E-3
3.647046391E1,-6.795675959E-3,8.170082234E-3,1.679829881E-2
3.648927328E1,-2.298312820E-2,1.397313084E-2,2.351761982E-2
3.650808266E1,-3.550549597E-2,1.458397787E-2,2.168507688E-2
3.652689203E1,-4.130854458E-2,1.397313084E-2,2.199050039E-2
3.654570141E1,-3.520007432E-2,1.244601328E-2,1.832541823E-2
3.656451078E1,-1.351499557E-2,7.559234742E-3,7.024743594E-3
3.658332016E1,2.290677221E-4,1.450762269E-3,-4.275931045E-3
3.660212958E1,1.550024934E-2,-1.656923257E-2,-1.557660475E-2
3.662093896E1,1.488940232E-2,-2.481566928E-2,-2.748812735E-2
3.663974833E1,3.588727675E-3,-2.267770469E-2,-3.665083647E-2
3.665855771E1,1.122431830E-2,-3.428380191E-2,-4.245388508E-2
3.667736708E1,1.488940232E-2,-4.222481698E-2,-4.672981426E-2
3.669617646E1,2.290677221E-4,-3.153498843E-2,-5.039490014E-2
3.671498583E1,-2.519744914E-3,-3.031329438E-2,-5.222744122E-2
3.673379521E1,7.864658721E-3,-4.100312293E-2,-5.528167635E-2
3.675260458E1,9.086352773E-3,-3.703261539E-2,-5.741964281E-2
3.677141396E1,-1.908897655E-3,-2.237228118E-2,-5.283828825E-2
3.679022333E1,-6.184828468E-3,-2.909160033E-2,-4.795150831E-2
3.680903271E1,-6.490251981E-3,-3.917058185E-2,-4.825693369E-2
3.682784208E1,-8.933641016E-3,-3.336753324E-2,-4.489727318E-2
3.684665151E1,-4.963133950E-3,-3.061871976E-2,-3.634541109E-2
3.686546089E1,-4.963133950E-3,-2.084516361E-2,-3.054236248E-2
3.688427026E1,-1.443126611E-2,-1.473669056E-2,-2.962609194E-2
3.690307964E1,-2.786990628E-2,-6.490251981E-3,-2.718270384E-2
3.692188901E1,-3.367295489E-2,-9.239064530E-3,-1.649287529E-2
3.694069839E1,-2.206685767E-2,-1.687465608E-2,-1.282779220E-2
3.695950776E1,-1.382041909E-2,-3.741439432E-3,-1.801999472E-2
3.697831714E1,-1.565296017E-2,2.252499200E-2,-1.496575773E-2
3.699712651E1,-2.206685767E-2,2.313583903E-2,-4.886778072E-3
3.701593589E1,-1.595838554E-2,1.145338640E-3,-7.941014133E-3
3.703474526E1,-2.825168660E-3,-7.406522986E-3,-2.321219631E-2
3.705355464E1,8.475505747E-3,1.756185899E-3,-2.596100792E-2
3.707236401E1,1.397313084E-2,1.275143679E-2,-1.801999472E-2
3.709117339E1,1.580567285E-2,8.399150101E-4,-1.435491070E-2
3.710998281E1,1.763821393E-2,-9.239064530E-3,-1.801999472E-2
3.712879219E1,1.458397787E-2,-4.657710437E-3,-1.649287529E-2
3.714760156E1,-2.214321401E-3,5.115845706E-3,-9.468132630E-3
3.716641094E1,-1.412584260E-2,7.559234742E-3,-5.192201585E-3
3.718522031E1,-9.239064530E-3,7.253811229E-3,-3.970507067E-3
3.720402969E1,-6.872031372E-4,1.244601328E-2,-9.162708884E-4
3.722283906E1,7.559234742E-3,1.000262424E-2,-3.970507067E-3
3.724164844E1,1.672194339E-2,-3.817795368E-4,-1.527118124E-2
3.726045781E1,2.649549954E-2,-6.490251981E-3,-2.137965336E-2
3.727926719E1,2.710634656E-2,-7.711946499E-3,-1.496575773E-2
3.729807656E1,2.038702741E-2,-3.130592173E-3,-1.801999472E-2
3.731688594E1,1.580567285E-2,4.199574701E-3,-2.473931387E-2
3.733569536E1,1.947075687E-2,1.450762269E-3,-1.679829881E-2
3.735450474E1,1.611109637E-2,-7.635590737E-5,-4.886778072E-3
3.737331412E1,7.864658721E-3,8.170082234E-3,4.275931045E-3
3.739212349E1,-3.130592173E-3,2.741177008E-2,1.160609815E-2
3.741093286E1,-6.795675959E-3,2.832804248E-2,1.068982668E-2
3.742974224E1,-8.933641016E-3,1.488940232E-2,9.162709117E-3
3.744855162E1,-1.107160654E-2,7.559234742E-3,3.665083554E-3
3.746736099E1,-1.015533600E-2,8.780929260E-3,-5.497625098E-3
